Timestamp (ms),Wrist Gyroscope X (deg/s),Wrist Gyroscope Y (deg/s),Wrist Gyroscope Z (deg/s),Wrist Accelerometer X (g),Wrist Accelerometer Y (g),Wrist Accelerometer Z (g),Wrist Roll (deg),Wrist Pitch (deg),Wrist Yaw (deg),Arm Gyroscope X (deg/s),Arm Gyroscope Y (deg/s),Arm Gyroscope Z (deg/s),Arm Accelerometer X (g),Arm Accelerometer Y (g),Arm Accelerometer Z (g),Arm Roll (deg),Arm Pitch (deg),Arm Yaw (deg),Wrist Gyroscope Magnitude (deg/s),Wrist Accelerometer Magnitude (g),Arm Gyroscope Magnitude (deg/s),Arm Accelerometer Magnitude (g),Difference Roll (deg),Difference Pitch (deg),Difference Yaw (deg)
0.0,-0.009167,-0.431329,0.069534,-0.954787,0.294901,0.055175,79.513184,72.738319,-60.488426,-0.309491,0.388117,-0.070405,-0.99534,0.075366,0.013203,79.244362,85.572693,90.39782,0.4369939556630046,1.000814216423308,0.501374459655655,0.9982765492412412,-0.2688220000000001,12.834373999999997,150.886246
19.986,-0.2496525,-0.325569,0.021685,-0.9533265,0.2941935,0.0539725,79.5031055,72.737705,-60.4912185,-0.2781375,0.327275,0.134389,-0.99584,0.078131,0.0149135,79.27938449999999,85.5690195,90.4354325,0.4108427725325712,0.999146766897011,0.4500331075068255,0.9990115971515297,-0.2237209999999976,12.831314499999998,150.926651
39.972,-0.2434889999999999,-0.2646283333333333,0.0101253333333333,-0.9515466666666668,0.2910143333333333,0.0532063333333333,79.49616766666666,72.73851,-60.492223,-0.1305636666666666,0.3458236666666667,0.18192,-0.9967766666666668,0.0785526666666666,0.0158463333333333,79.32214333333333,85.56626633333333,90.47807066666668,0.3597465361874786,0.9964744427011998,0.411990007015003,0.9999926754390088,-0.1740243333333305,12.827756333333332,150.97029366666666
219.842,-0.37777125,-0.22895525,-0.03449225,-0.9520135,0.2911345,0.0530314999999999,79.47435575,72.750635,-60.459873,-0.08945325,0.46006225,0.201851,-0.996568,0.07983825,0.01589125,79.39555725,85.56363300000001,90.55139175,0.443081639361402,0.9969460071963526,0.5102969566944574,0.999887221947368,-0.0787984999999977,12.812998,151.01126475
239.828,-0.2984122,-0.1994034,-0.0745086,-0.9530802,0.292098,0.0539432,79.45909420000001,72.75832820000001,-60.442571,-0.032785,0.5241536,0.2015737999999999,-0.997006,0.0797,0.0164744,79.4746566,85.5617616,90.6297868,0.3665557099737501,0.998295035579302,0.5625334207532917,1.0003221780463332,0.0155624000000017,12.8034334,151.07235780000002
259.814,-0.356504,-0.1706842,-0.0984224,-0.9534926,0.2921057999999999,0.0553428,79.42866959999999,72.76801,-60.425607,0.0267166,0.5213672,0.2028994,-0.9961946,0.0802054,0.0175688,79.59574419999998,85.55865179999999,90.750763,0.4073268552003416,0.9987676217019852,0.5600943674701255,0.9995725336321322,0.1670746000000008,12.7906418,151.17637
279.8,-0.5624024000000001,-0.0876036,-0.0972102,-0.9538416,0.2930074,0.0581344,79.39475680000001,72.7771898,-60.40844539999999,0.1788644,0.5433796,0.1037558,-0.9954646,0.0800694,0.0174736,79.719934,85.5577164,90.8718034,0.5774259028159026,0.9995232577627596,0.5813941256300755,0.9988324210629528,0.3251771999999988,12.780526600000002,151.2802488
299.785,-0.948404,-0.0387224,-0.1643662,-0.9542732,0.2935496,0.0579202,79.35636880000001,72.7875826,-60.3890546,0.2105798,0.5939302,0.0459293999999999,-0.9938318,0.081283,0.0162901999999999,79.8630172,85.5575044,91.0110962,0.9633202059441088,1.0000817253937,0.6318278598039501,0.9972832814182137,0.5066483999999974,12.769921800000002,151.40015079999998
319.771,-0.8212392,-0.2530258,-0.1192498,-0.9543476,0.2912884,0.0571322,79.319029,72.7887804,-60.40958380000001,0.227081,0.586287,-0.0405897999999999,-0.994544,0.0804244,0.0157326,80.0021742,85.55955200000001,91.1461136,0.8675692444308524,0.9994460274958122,0.6300363154565299,0.9979145087401624,0.6831451999999956,12.770771600000003,151.5556974
339.757,-0.8059591999999999,-0.654974,0.0225666,-0.9528232,0.2911726,0.057153,79.25868519999999,72.7854584,-60.4542258,0.285005,0.4916888,-0.1180186,-0.9945922,0.0794566,0.0145866,80.12176939999999,85.56348260000001,91.260318,1.038783145885704,0.997957914372144,0.5804430342560758,0.9978676086956424,0.8630841999999973,12.778024200000004,151.7145438
359.743,-1.0854896,-0.9742534,0.0631788,-0.9527282,0.290626,0.0623253999999999,79.16392660000001,72.7798812,-60.5277954,0.2847692,0.4487932,-0.2165696,-0.9966572,0.0823592,0.0125832,80.267915,85.5698272,91.3962798,1.4599482593191997,0.9980175100850686,0.5739435732535386,1.0001334656228236,1.103988399999997,12.789946000000004,151.9240752
379.728,-1.3743848,-1.8586828,0.1280056,-0.9553136,0.2899158,0.066719,79.001352,72.76995840000001,-60.66513299999999,0.0710831999999999,0.4523792,-0.2522836,-0.9974032000000002,0.0845706,0.0111424,80.4207868,85.5757598,91.543196,2.3151718647042685,1.0005631766138507,0.5228257613620814,1.001044196243283,1.419434799999999,12.805801400000002,152.208329
399.714,-2.065403,-3.6017994,0.4765591999999999,-0.9586798,0.2903264,0.0696264,78.7170732,72.74622020000001,-60.91434339999999,-0.2999942,0.5530924,-0.3012728,-0.9987574,0.0833366,0.0105826,80.59022039999999,85.5837356,91.7141586,4.179229252069573,1.0040937272197052,0.697619540287713,1.0022840537378015,1.8731472,12.8375154,152.628502
419.699,-3.1853818000000005,-5.529091,0.9042956,-0.9577898,0.293037,0.0746686,78.2916582,72.7037078,-61.286449600000005,-0.4952654000000001,0.604215,-0.2718788,-0.9993952,0.0804966,0.0099758,80.7694792,85.5929002,91.8988952,6.444785103495042,1.0043940383031948,0.8272131917175887,1.0026813975437263,2.477821,12.8891924,153.1853448
439.685,-4.1611506,-7.7757226,1.3894162,-0.960463,0.3006278,0.0979832,77.68312840000002,72.63516840000001,-61.8258378,-0.5242144000000001,0.6974132,-0.1975774,-0.9997274,0.08034,0.010156,80.971202,85.6008394,92.1067534,8.92790645363478,1.01117108146153,0.8945516964895657,1.003001761836319,3.2880735999999984,12.965670999999997,153.9325912
459.671,-6.628569400000001,-11.3922186,1.9670698,-0.9649448,0.3114668,0.1082366,76.811554,72.5311752,-62.5870758,-0.2832426,0.8468945999999999,-0.106037,-0.9986498,0.0790152,0.0133498,81.1676086,85.6056918,92.3093734,13.32628757452256,1.0197280010516725,0.8992778654748042,1.0018597916031564,4.3560545999999984,13.0745166,154.8964492
479.657,-8.5953646,-15.7285708,2.997628,-0.9581082,0.310315,0.0968818,75.6948348,72.3837752,-63.565499,-0.2322396,1.2768032,-0.0597848,-0.9974596,0.0791822,0.0131824,81.4726256,85.610654,92.61987,18.17289205503433,1.0117572857674315,1.2991288872353812,1.0006843908539595,5.7777908,13.2268788,156.185369
499.642,-6.818718,-19.6768062,4.6119802,-0.9479856,0.3104378,0.1037566,74.4245344,72.1769012,-64.7397642,-0.3074826,1.5440628,-0.0204724,-0.9955378,0.0800452,0.009225,81.87076859999999,85.6150272,93.0250778,21.329368925523195,1.002902666024854,1.5745140833947342,0.9987931947589952,7.446234200000001,13.438126,157.76484200000002
519.628,-3.6047504,-23.4887098,6.628192,-0.9490102,0.333436,0.1380076,73.046887,71.8943098,-66.0893148,-0.6251716,1.8439,0.0681378,-0.9921436,0.0827275999999999,0.0069641999999999,82.3554824,85.6165712,93.523355,24.67076493957535,1.015305876796643,1.948191340509294,0.9956110078260284,9.308595400000002,13.7222614,159.6126698
539.614,-2.2545094000000003,-27.535556199999995,8.5578592,-0.9533234,0.342477,0.1704022,71.5735838,71.54749139999998,-67.5675748,-1.1907426,2.3107046,0.0480924,-0.9903162,0.0832432,0.0098948,82.918994,85.6188234,94.1121444,28.92276995664612,1.027206362072101,2.5999108767136,0.9938578939645848,11.345410200000003,14.071332000000002,161.6797192
559.599,1.2650135999999998,-31.8085932,11.4291888,-0.9546394,0.3464,0.2043706,70.01970800000001,71.10121159999998,-69.19698460000001,-2.634418,3.2628243999999995,0.0712038,-0.9894028,0.0845732,0.0052204,83.72020260000001,85.62172100000001,94.9680358,33.82326444028306,1.0359038016035658,4.1941925617565285,0.993024561318722,13.700494600000004,14.520509400000003,164.16502040000003
579.585,2.6822576,-36.98105400000001,14.6763872,-0.9720808,0.3763706,0.2674662,68.3445708,70.5352142,-70.980348,-3.9992644,4.498204599999999,0.146753,-0.9874862,0.0854066,-0.0107532,84.9125168,85.623491,96.2427412,39.87717645506008,1.0761663804521306,6.020755501394946,0.991231009313288,16.567946,15.088276800000004,167.2230892
599.571,-1.1856006,-44.2614864,17.9396144,-1.0006408,0.4049638,0.3189498,66.3847166,69.819287,-72.9792952,-5.5470662,6.2712862000000005,0.6211412000000001,-0.9834624,0.0876188,-0.0126306,86.518361,85.61277620000001,97.9630996,47.773576294231866,1.125613905766591,8.395522045699739,0.9874385441046748,20.1336444,15.793489200000002,170.9423948
619.556,-5.1094674,-54.4143196,21.8922816,-1.0247004,0.4087123999999999,0.3521626,64.09688320000001,68.9147064,-75.2423796,-6.559960599999999,9.017755,1.175831,-0.9823588,0.0930146,-0.0041494,88.6854904,85.5832704,100.26713399999998,58.875264995550594,1.1580480268592837,11.21318718536966,0.9867612402556964,24.5886072,16.668564000000003,175.5095136
639.542,-7.473605000000001,-66.299247,26.4749102,-1.0394786,0.4287252,0.3743732,61.521662000000006,67.7693984,-77.7757338,-9.0279384,12.8388778,2.0705732,-0.9764876,0.1046704,-0.022015,91.7665222,85.51548,103.5366898,71.77998185121739,1.1851060500441468,15.831226367343929,0.9823281456900848,30.2448602,17.746081600000004,181.3124236
659.528,-13.3629538,-78.449569,30.5840516,-1.0490896,0.4526782,0.406897,58.709359600000006,66.3855864,-80.4729552,-10.9457178,15.7088878,3.5064708,-0.9684602,0.1055844,-0.0445056,95.4640548,85.396942,107.462645,85.25425281367586,1.2128774506076037,19.464666232470528,0.9752148342487208,36.7546952,19.0113556,187.9356002
679.513,-17.7270228,-90.3932466,35.039722600000005,-1.0491948,0.465628,0.4453606,55.7612974,64.7379776,-83.25508099999999,-12.8701832,17.291716,5.2173006,-0.9643854,0.1021612,-0.033357,99.160945,85.2268538,111.4280626,98.55439375352618,1.2312453966465824,22.178036057707605,0.9703549865732644,43.3996476,20.4888762,194.6831436
699.499,-20.0727934,-101.636513,39.899399,-1.0400274,0.4815953999999999,0.4837486,52.8624572,62.8283676,-85.9817472,-14.408129400000002,17.5041656,6.1535606,-0.9766466,0.1010734,-0.0344514,102.6311766,85.0259368,115.1979448,111.01738535130188,1.244027262584659,23.49162221340281,0.9824669523404236,49.7687194,22.1975692,201.179692
719.485,-24.928798,-111.6046588,44.32470479999999,-1.0256906,0.4999898,0.5139364000000001,50.0631988,60.6738228,-88.5528502,-16.7595098,15.4677436,6.3083034,-0.98739,0.0990881999999999,-0.0404928,105.4656204,84.8225386,118.37771320000002,122.64470755477534,1.251463795032585,23.662775674000898,0.9931752868104804,55.4024216,24.1487158,206.93056340000004
739.47,-30.0869314,-121.2252474,48.5178856,-1.0165708,0.5067512000000001,0.5398006,47.3930092,58.28606560000001,-90.9218918,-18.5328948,11.8199154,5.3104276,-0.9966554,0.0901884,-0.0332234,107.32482,84.6536758,120.6156328,133.99540765024076,1.2576158626044918,22.613695651659107,1.0012790460961818,59.9318108,26.3676102,211.5375246
759.456,-29.651877,-131.0805482,53.277601,-1.0125788,0.5087374,0.5722772,44.9717988,55.6572174,-93.0710298,-21.128074400000003,8.4931748,3.3134966,-1.0017678,0.0929726,-0.0229812,108.3726104,84.5380508,122.0923372,144.56779272836275,1.2695002016573451,23.011058336232647,1.0063353144062073,63.4008116,28.8808334,215.163367
779.442,-29.776282400000003,-140.4534928,57.90208359999999,-1.0026484,0.51632,0.6050538000000001,42.7878534,52.8000282,-95.0010194,-22.7693778,6.9371252,1.7979118,-1.0064464000000002,0.1087492,-0.0422592,109.1708388,84.44725799999999,123.3510942,154.81105231379829,1.279836027511728,23.870499749276032,1.0131863523351667,66.3829854,31.6472298,218.3521136
799.427,-32.8578632,-148.7318634,61.339668200000006,-0.9831324,0.5244376,0.6283635999999999,40.7642854,49.75187,-96.727826,-25.756108,6.248501999999999,0.8741554,-1.0060095999999998,0.1119646,-0.0579042,109.8604292,84.37282560000001,124.5602342,164.20524126650852,1.2792282540768398,26.517636097793808,1.0138758717530263,69.09614380000001,34.6209556,221.2880602
819.413,-33.0728734,-156.1632172,64.2386634,-0.9547414,0.5174498000000001,0.6592726,38.932393000000005,46.5350808,-98.2716934,-27.752231,6.5344672,0.8074838,-1.006889,0.115106,-0.070691,110.5937452,84.29323279999998,125.85300320000002,172.06792622858364,1.270403793092873,28.52258082909924,1.015909477777425,71.6613522,37.758152,224.1246966
839.399,-31.075935800000003,-162.3009704,67.50701740000001,-0.9146978,0.5275511999999999,0.6920404,37.3421402,43.1630984,-99.6205794,-28.6620302,7.2033052,1.0765346,-1.0112139999999998,0.1164304,-0.0753911999999999,111.4056256,84.2017136,127.2430056,178.50634772150627,1.2624984155152197,29.572935392602744,1.0206829208317338,74.0634854,41.0386152,226.863585
859.384,-33.1970372,-166.8610076,69.26344900000001,-0.8587576,0.528619,0.7120430000000001,35.8833336,39.682966,-100.8037672,-29.4139004,7.649703199999999,1.4288244,-1.0204182,0.1038071999999999,-0.0724866,112.2435178,84.1074968,128.67438539999998,183.6901317532356,1.2344666445747976,30.425927018831253,1.028242940575154,76.3601842,44.4245308,229.4781526
879.37,-32.49436000000001,-170.2102814,70.30794519999999,-0.8048708,0.5211458,0.7207274,34.5870498,36.1320562,-101.8429748,-30.6817042,6.9217976,0.8666204000000001,-1.0256653999999998,0.0801934,-0.0546196,112.889781,84.0452486,129.9393176,187.0043595329344,1.1995240450533038,31.464730819591637,1.0302445315869817,78.30273120000001,47.9131924,231.7822924
899.356,-27.4247562,-172.715448,71.8626022,-0.7528346,0.5125356,0.7366124000000001,33.5204394,32.5210852,-102.7492858,-30.379736200000004,6.084414600000001,-0.1754418,-1.0200588,0.0729539999999999,-0.0349208,113.3694106,84.0161944,131.0316592,189.0687092710626,1.1713455954833656,30.983531955402874,1.0232603304370202,79.8489712,51.4951092,233.780945
919.342,-24.4329406,-174.53475939999998,73.2692674,-0.7016502,0.51423,0.7547948,32.6260714,28.863763200000005,-103.53835,-30.6317444,6.0273586,-1.198588,-1.0062226,0.0687714,-0.0350044,113.904779,84.0071444,132.1849886,190.8605154831971,1.1517207500809734,31.242109881915297,1.0091772560992842,81.2787076,55.1433812,235.72333860000003
939.327,-20.6121686,-176.1751128,74.14096839999999,-0.6498290000000001,0.5006058,0.7721389999999999,31.887323,25.1687512,-104.2441544,-30.9484806,6.6961326,-0.5764796000000001,-0.9995928,0.0627548,-0.036581,114.5014344,83.9819186,133.4061982,192.248316142892,1.126535632616936,31.66984325781508,1.0022285668927424,82.6141114,58.8131674,237.6503526
959.313,-14.779846400000002,-177.56172180000002,75.1072402,-0.6057256,0.5026408,0.7806678,31.3389648,21.4227292,-104.87850799999998,-29.5247776,8.8644204,1.0724564,-1.0017112,0.069268,-0.0335252,115.2955278,83.90331139999999,134.79804080000002,193.35900919959403,1.1085997881457672,30.845430846193395,1.004662790723574,83.95656299999999,62.48058219999999,239.6765488
979.299,-13.8022018,-178.5164734,75.172592,-0.5573558000000001,0.509466,0.7991393999999999,30.86572,17.6404216,-105.4700042,-28.405325,11.7173026,2.1009178,-1.0081520000000002,0.0706065999999999,-0.0314488,116.4251176,83.777794,136.5055114,194.18947097538344,1.0994657218767667,30.79888835945136,1.0111106636214455,85.5593976,66.13737239999999,241.9755156
999.285,-13.836074399999998,-179.8730378,73.064105,-0.499012,0.480603,0.8113754,30.4283708,13.8339464,-106.069809,-26.5143906,14.773633,2.716934,-1.012552,0.0683434,-0.0383884,117.9869904,83.60811,138.6101622,194.6384086496126,1.0669218619365524,30.47383912913523,1.0155816275820078,87.5586196,69.7741636,244.6799712
1019.27,-8.544144999999999,-180.5056,71.4791592,-0.432002,0.4725022,0.8104176000000001,30.135605,10.0111488,-106.6697754,-23.7354628,18.2608834,3.6935298,-1.0205668,0.0662214,-0.0286724,119.8923888,83.38510579999999,141.006314,194.33101719766708,1.0327926913948415,30.17406534197982,1.0231148389120155,89.7567838,73.37395699999999,247.6760894
1039.256,-9.892996,-179.468274,68.59493,-0.3566562,0.4609498,0.8018620000000001,29.853574,6.217987200000001,-107.2843156,-20.2280184,21.2598278,3.7050566,-1.0261326,0.0635082,-0.020964,122.1084028,83.1275176,143.64633179999998,192.3850232323192,0.9912926057236986,29.5783780976171,1.0283097264666905,92.2548288,76.9095304,250.9306474
1059.241,-11.9198022,-177.7556916,65.428829,-0.2772747999999999,0.4383282,0.807626,29.5659112,2.4921776000000007,-107.9131394,-17.221277399999998,23.6624402,2.7496366,-1.02502,0.0565964,-0.0200216,124.5920744,82.85318600000001,146.49696339999997,189.78961838043904,0.9598295064782496,29.394624898752944,1.0267765177289168,95.0261632,80.3610084,254.4101028
1079.227,-12.2550018,-176.191565,61.9120322,-0.2024461999999999,0.413898,0.7964477999999999,29.3115338,-1.174683,-108.5686234,-12.6041186,26.502541,2.4254952,-1.0197062,0.0546324,-0.0256346,127.3257262,82.53496399999999,149.5085082,187.1543544174195,0.9201223377482364,29.44709683661141,1.0214903651847924,98.0141924,83.70964699999999,258.0771316
1099.213,-11.5380152,-174.045816,59.06075439999999,-0.1349424,0.404511,0.780829,29.117566,-4.776542,-109.2402862,-7.966886000000001,29.127840600000003,2.9147686,-1.0188506,0.0560081999999999,-0.03692,130.17041460000002,82.15551459999999,152.5409484,184.15549020368195,0.8896811382061328,30.338065965838204,1.0210565851056443,101.0528486,86.9320566,261.7812346
1119.198,-16.4518356,-171.1627808,55.6434532,-0.0717952,0.3919488,0.7754932,28.867782,-8.2949444,-109.933383,-2.4683894,29.3821576,4.7108208000000005,-1.0235856,0.0577854,-0.0489186,132.7603058,81.7316804,155.2070188,180.73061254203412,0.8718762044067495,29.859604218257527,1.0263818307075006,103.8925238,90.02662480000001,265.1404018
1139.184,-18.0245974,-168.7266266,52.45724800000001,-0.0119284,0.3726804,0.7724978,28.6259306,-11.7304742,-110.6482314,3.1281094000000005,28.262426999999995,6.557051599999999,-1.0210832,0.0718254,-0.0575266,134.95914,81.28184359999999,157.3672178,177.61003210117784,0.8577795860683326,29.1812401044534,1.0252214878332195,106.3332094,93.0123178,268.01544920000003
1159.17,-18.9780084,-166.4006866,49.6473504,0.0404565999999999,0.362816,0.7639037999999999,28.4124796,-15.107784600000002,-111.3857162,8.2452886,26.2699262,9.480217,-1.0208814,0.1030662,-0.0628286,136.5733428,80.80091399999999,158.83615100000003,174.68317808398805,0.8466529406988438,29.119895621684933,1.0279926592278563,108.1608632,95.9086986,270.2218672
1179.155,-19.05222,-163.53318159999998,47.6315392,0.1014732,0.3467156,0.7439992,28.2363406,-18.4041658,-112.1294342,10.2953244,22.2587022,12.0218736,-1.0358076,0.122996,-0.0897416,137.5218902,80.3239014,159.59108880000002,171.390933534152,0.827069118757459,27.31243257170436,1.0469378945306738,109.2855496,98.7280672,271.720523
1199.141,-21.603582,-159.4734068,45.9540718,0.1611092,0.3547972,0.7267607999999999,28.0516096,-21.606424,-112.868802,12.5595696,11.361156200000002,13.5531078,-1.0554816,0.1227244,-0.0942804,137.466507,79.98697059999999,159.2819366,167.36265696572983,0.8246323349645707,21.69113620298539,1.066766834935395,109.4148974,101.5933946,272.1507386
1219.127,-24.0545388,-155.5175902,43.6049576,0.2188446,0.3377366,0.6921796,27.8570504,-24.716812800000003,-113.6164736,13.5384152,2.859049,12.436272,-1.0531454,0.112733,-0.106474,136.9041442,79.79040219999999,158.4364442,163.29646054276142,0.8006694502632656,18.604400247521447,1.0645001998619634,109.0470938,104.507215,272.0529178
1239.113,-21.8741778,-151.6718108,41.8211234,0.2716056,0.3227246,0.6604246,27.745201999999995,-27.7568958,-114.3673646,15.937762600000005,-4.946151199999999,10.570392,-1.0524124,0.105986,-0.1153362,135.9805542,79.7316804,157.17386779999998,158.8452838714925,0.7836334740691467,19.75373067096148,1.0640053246578232,108.2353522,107.48857619999998,271.5412324
1259.098,-19.986801,-146.7621856,40.0972412,0.3284885999999999,0.3329776,0.6198944,27.7229478,-30.692537000000005,-115.1272614,17.710075,-13.125587,7.080752000000001,-1.0419652,0.0882852,-0.1180334,134.7802368,79.8410478,155.59252940000002,153.4483629373524,0.776561594197833,23.153074082844764,1.052339126928976,107.057289,110.5335848,270.7197908
1279.084,-21.9715642,-140.3829804,37.519109400000005,0.3847384,0.336393,0.5800791999999999,27.7061062,-33.5063516,-115.8971496,21.8625582,-20.483636,5.657545600000001,-1.0344576,0.0737758,-0.1144146,133.2117798,80.07396700000001,153.5524598,146.96194878114088,0.7730949263552309,30.48866374646424,1.0433772546670548,105.5056736,113.5803186,269.4496094
1299.07,-20.9403504,-133.8295046,34.437899,0.4394255999999999,0.3093213999999999,0.5507736000000001,27.740701,-36.1974744,-116.6781264,24.8383386,-19.8467334,3.3484326,-1.0095554,0.078918,-0.1223495999999999,131.8842864,80.3143524,151.6973848,139.76696127443853,0.7694973326076446,31.969483760856512,1.0199997946143518,104.1435854,116.5118268,268.3755112
1319.056,-13.299575,-127.052263,31.496867,0.4853938,0.3026592,0.5208882,27.9779714,-38.7495462,-117.4845702,28.9984738,-20.470649,2.5831644,-1.017102,0.0808632,-0.12043,130.5752564,80.56565859999999,149.77822880000002,131.57206717011587,0.7736499527062094,35.58976947843178,1.0273941407357936,102.597285,119.3152048,267.262799
1339.041,-10.7881978,-118.941681,28.239399,0.52274,0.3245505999999999,0.4853942,28.330501200000004,-41.12633219999999,-118.3277586,30.0433942,-19.155939600000004,2.163691,-1.0059592,0.0787968,-0.1265888,129.4114808,80.7956146,147.9854768,122.72315326277632,0.7837076808057963,35.6964580281983,1.0169501325238717,101.0809796,121.9219468,266.31323540000005
1359.027,-12.1252112,-110.298169,24.2177528,0.562617,0.3076306,0.4539814,28.7009152,-43.323365,-119.2038374,33.1824566,-16.753612,3.7672154,-1.0200704,0.0723078,-0.1473368,128.4336548,80.958882,146.3165802,113.57467315418114,0.7856676054740452,37.36242568313017,1.033189320275447,99.7327396,124.282247,265.52041760000003
1379.012,-7.544805199999999,-102.3302886,20.51151,0.6056261999999999,0.2736994,0.4358168,29.1998608,-45.3465538,-120.107791,35.037795200000005,-11.7878948,2.437207,-1.0023034,0.0873312,-0.1391622,127.9995926,81.07033220000001,145.1627168,104.6381101365336,0.7947519983296927,37.04782765903906,1.0156795567765653,98.7997318,126.416886,265.2705078
1398.998,1.464645200000001,-93.9094526,18.8705394,0.6505264,0.277746,0.4180353999999999,29.890594799999995,-47.2015656,-120.995822,36.667118,-7.420703600000001,3.2904073999999994,-1.0095898,0.0915975999999999,-0.1346646,127.92234359999998,81.1114226,144.33809820000002,95.7978482557958,0.8216331500530635,37.55490866987898,1.0226417941209718,98.0317488,128.3129882,265.3339202
1418.984,0.9775364000000012,-84.04233919999999,18.2354244,0.6931776,0.2936452,0.3972566,30.536586,-48.8763504,-121.813635,38.17948,-1.5619304000000005,5.7651894,-0.9803056,0.1027476,-0.1373032,128.2324602,81.0312622,143.87568679999998,86.00349445615157,0.8511965077867507,38.643883454729504,0.995192598157442,97.6958742,129.90761260000002,265.6893218
1438.97,-1.3915029999999988,-73.5994698,17.8603366,0.7356612,0.2708694,0.373992,31.047265600000003,-50.3684166,-122.510626,41.5793304,4.6895752,6.898149599999999,-0.9793954,0.1166779999999999,-0.1484278,129.0972918,80.8440674,143.90671400000002,75.7483323836599,0.8685837029934421,42.40775047055431,0.9974266474473198,98.0500262,131.212484,266.41734
1458.955,3.679691800000001,-63.0052232,18.5138216,0.7712222,0.2515018,0.3625398,31.53413,-51.68265240000001,-123.0424712,42.780001,12.6324476,3.9852238,-0.9625168,0.1370696,-0.1481156,130.83820079999998,80.5850876,144.803702,65.77202956015142,0.888522337231946,44.783805406227295,0.9834454212053458,99.3040708,132.26773999999995,267.84617319999995
1478.941,9.9400748,-51.6521384,19.8753744,0.790568,0.2763814,0.354617,32.014938,-52.81936119999999,-123.390213,43.587274,20.3352732,3.1781742,-0.9742192,0.15138,-0.1562556,133.1725864,80.2179306,146.289078,56.22969852188899,0.9094710867196164,48.20243336300834,0.9982157915901751,101.1576484,133.0372918,269.67929100000003
1498.926,6.427772800000001,-39.5597394,20.1116064,0.7966324,0.2887828,0.3383783999999999,32.28382380000001,-53.7512756,-123.549971,44.647048,28.056258199999995,4.401691,-0.9579524,0.1577422,-0.171522,135.88486659999998,79.70762020000001,148.1385928,44.84156505467726,0.9124245875096528,52.913962268562464,0.9858880254930577,103.6010428,133.4588958,271.6885638
1518.913,6.348095400000001,-27.4021948,19.0270014,0.8008426,0.2705838,0.3248936,32.3982806,-54.464415800000005,-123.5227554,44.1690534,37.5016686,2.7604543999999995,-0.9569086,0.1779336,-0.1899108,139.11922320000002,79.0625914,150.5325258,33.95887773970527,0.90560494373549,58.007762709233646,0.9916655417627256,106.7209426,133.5270072,274.0552812
1538.898,12.6786814,-15.4488344,17.3789634,0.798637,0.2669864,0.3301744,32.504993400000004,-54.9629724,-123.3291656,41.0661206,46.3240262,1.6566822,-0.9476802,0.1883368,-0.1947538,142.56338499999998,78.27500440000001,153.2110934,26.48478459832869,0.9044987175056248,61.92807328202475,0.9856457549853904,110.0583916,133.2379768,276.540259
1558.884,16.3153232,-3.3241848000000003,14.980902,0.7938672,0.2832288,0.3287395999999999,32.574794000000004,-55.230803,-122.9951338,37.7463376,51.7122846,3.4501294,-0.930569,0.1812182,-0.2097658,145.76142880000003,77.3503828,155.7137972,22.397932950132105,0.9047173088835208,64.11590889663277,0.9709790886635408,113.1866348,132.5811858,278.708931
1578.869,14.367578400000005,9.1704568,11.7068136,0.7858084,0.2787296,0.3167202,32.4953436,-55.2531754,-122.5256756,35.1177866,52.8644858,4.161068599999999,-0.9110958,0.1530334,-0.2366877999999999,148.6379334,76.3750594,157.9462464,20.6778642916999,0.891906226301151,63.60210127405735,0.9536959122078904,116.1425898,131.6282348,280.47192200000006
1598.855,17.183615,21.977883,7.9566278,0.7799790000000001,0.2629936,0.3140014,32.3555662,-55.0183892,-121.9184934,31.58469460000001,52.8445434,3.1759546,-0.9106632,0.133271,-0.242628,151.2587526,75.4062912,159.9931884,29.010547936529,0.8809822661574522,61.64596813864646,0.9518072124433812,118.9031864,130.4246804,281.9116818
1618.841,21.5034228,34.558725800000005,4.045117,0.7710606,0.255972,0.3270402,32.2125362,-54.5367394,-121.1995466,26.7482256,48.229667,1.4825368,-0.9042634,0.1156092,-0.2470452,153.4738588,74.52388,161.7281586,40.90312570670895,0.8757918737190931,55.17033865260153,0.9445046927078976,121.2613226,129.0606194,282.92770520000005
1638.826,21.247965200000003,47.4524144,-0.4143922,0.7570166,0.2591312,0.3254492,32.0021766,-53.7889512,-120.3953276,21.946998,38.6884344,-0.4558388000000001,-0.896653,0.1012616,-0.2593227999999999,155.22934600000002,73.8164642,163.0920012,51.99403214240226,0.8637941266700301,44.48228261394296,0.9388763649402408,123.2271694,127.6054154,283.4873288
1658.812,20.2735234,60.759124,-5.2396774,0.7343116000000001,0.2395454,0.323946,31.7049392,-52.76991360000001,-119.5041946,17.0197858,28.1619326,-2.448534,-0.9019242,0.092134,-0.2753834,156.6044222,73.3090866,164.1656524,64.26617399187379,0.8375777787595132,32.99640700430852,0.9475188407082996,124.899483,126.0790002,283.669847
1678.798,23.5862854,73.879374,-10.0683284,0.7090994,0.2228142,0.3434225999999999,31.4157456,-51.4743914,-118.536374,10.7752826,19.1977274,-4.9519086,-0.8982328,0.1012575999999999,-0.2778636,157.670633,72.97955160000001,165.0523986,78.20387457391338,0.8187839818857964,22.565036034035654,0.9456656093770992,126.2548874,124.45394299999998,283.5887726
1698.784,24.0618812,85.8330292,-15.5911306,0.6835762,0.2293464,0.3672708,31.143633,-49.913248,-117.55961299999998,4.272649199999999,10.482026,-8.7185478,-0.8855190000000001,0.1221188,-0.2866376,158.53823540000002,72.82727639999999,165.87220159999998,90.49511800046024,0.8091749087385496,14.287808649048372,0.9387321313389672,127.39460239999998,122.7405244,283.4318146
1718.769,21.6186098,97.6745132,-21.2632006,0.651747,0.2354156,0.373916,30.8504032,-48.0869822,-116.5925018,-2.2690408,2.5687,-10.862882,-0.8884640000000001,0.1303967999999999,-0.2943912,159.1821868,72.8310546,166.59675599999997,102.27315639158437,0.7874057605760577,11.390740589969935,0.945006763670864,128.3317836,120.9180368,283.1892578
1738.755,21.395484000000003,109.6601058,-26.0282252,0.6237798,0.2299772,0.3840298,30.5582852,-45.9982576,-115.6082108,-7.596567999999999,-1.9179614,-11.987466800000002,-0.8847379999999999,0.1339077999999999,-0.2977202,159.6732328,72.9211196,167.2735384,114.7195451818188,0.7677692613643242,14.32081637308489,0.9430429179167192,129.1149476,118.9193772,282.8817492
1758.741,23.0402944,120.324359,-30.220994799999996,0.5943423999999999,0.2338428,0.4352902,30.315421800000003,-43.662613,-114.61816560000004,-12.5351852,-3.935176,-14.985927800000002,-0.8773987999999999,0.1417028,-0.2898482,160.1866362,73.0676818,168.0787018,126.18286358099968,0.7729184315085519,19.929739340394995,0.9348370536155056,129.8712144,116.7302948,282.69686740000003
1778.726,23.497988000000003,129.27227299999998,-34.5118574,0.5711908,0.2528504,0.4652564,30.1345078,-41.120745,-113.6594956,-17.3806666,-6.1198518,-17.6294508,-0.8781610000000001,0.1414212,-0.286231,160.7286926,73.270868,169.014679,135.84750387045247,0.7788811029456036,25.50171941308937,0.9343954639719952,130.5941848,114.391613,282.6741746
1798.712,23.749194600000003,137.9556776,-39.058206,0.5295388,0.2779594,0.4820744,30.0223888,-38.3727178,-112.7391846,-22.2950792,-8.796014,-18.9157454,-0.8867376,0.1319468,-0.2844924,161.2289796,73.5328554,170.0073304,145.33181579462308,0.7681591605189383,30.532701204775343,0.940558055061866,131.2065908,111.9055732,282.746515
1818.698,25.621662200000003,145.64243460000003,-43.4556608,0.492116,0.2853304,0.5070568000000001,29.995905200000003,-35.435267800000005,-111.8501938,-26.7199826,-11.744226,-19.0957656,-0.8850528000000001,0.1206752,-0.2841978,161.6218354,73.85005340000001,170.9779664,154.13170597145435,0.7620355589120498,34.87882707794977,0.9373629778307442,131.6259302,109.2853212,282.8281602
1838.683,30.033453,150.81433420000002,-47.30218719999999,0.4536034,0.3014536,0.588743,30.1163802,-32.36130000000001,-111.0059158,-31.443177,-16.3761072,-18.0132052,-0.8912013999999999,0.113942,-0.2779084,161.76144119999998,74.2503342,171.7822968,160.88650848718282,0.8020278283784921,39.76588774888005,0.9404550991496192,131.645061,106.6116342,282.7882126
1858.669,30.233369400000004,154.3226838,-52.0684912,0.4182484000000001,0.3486718,0.6036836,30.3352232,-29.1785086,-110.2446076,-36.5643578,-21.949129,-13.977204999999998,-0.9009698,0.1011892,-0.2683278,161.4200898,74.734514,172.191147,165.6522717512685,0.812980711411261,44.87848911000778,0.9455081400821044,131.0848666,103.9130226,282.4357546
1878.655,28.5233988,157.598578,-57.3043608,0.3551892,0.3794856,0.6289242,30.595996,-25.8709876,-109.5587112,-41.6510718,-25.5662316,-7.877782199999999,-0.9125328,0.0944728,-0.2584076,160.4634002,75.2491364,172.0664186,170.10198656518537,0.8159131925331519,49.502559860114616,0.9531084454318092,129.86740419999998,101.120124,281.6251298
1898.64,31.1991024,159.6368104,-60.109796800000005,0.3054367999999999,0.376178,0.6514504,30.949531200000003,-22.4985064,-108.897493,-45.2292594,-25.8364224,-0.8247,-0.9047532,0.0900894,-0.2533728,158.917813,75.7148392,171.4056092,173.40842798603683,0.811904643500947,52.0949782454481,0.94387087500486,127.9682818,98.2133456,280.3031022
1918.626,35.6348972,159.24580999999998,-62.4273246,0.2582462,0.4054596,0.72307,31.4439076,-19.109937,-108.2740098,-47.6832542,-24.339079,3.8812654,-0.9143452,0.0880988,-0.2388768,156.99244679999998,76.1197724,170.40318299999998,174.7176143315963,0.8682849831400978,53.67632363319321,0.9491315340366264,125.5485392,95.2297094,278.6771928
1938.612,32.2195632,158.5948394,-66.30213619999999,0.1896498,0.4679134,0.7364182,31.9320702,-15.6903966,-107.7128464,-49.327407,-20.681728,7.3678066,-0.9370112,0.0809246,-0.2192312,154.84348440000002,76.4348312,169.2040528,174.889669797258,0.892872757917297,53.99269884442374,0.965712741380189,122.9114142,92.1252278,276.9168992
1958.598,26.7649224,158.6552704,-69.3464752,0.1153153999999999,0.4717876,0.7383332,32.3436196,-12.2390518,-107.1835936,-50.084197800000005,-15.321926,12.3555132,-0.9609106,0.07379,-0.2070338,152.45350639999998,76.605223,167.7724976,175.2049928496313,0.8837517158190755,53.813074545637846,0.9857267063617584,120.1098868,88.8442748,274.9560912
1978.583,31.6484242,158.01616819999998,-70.0437316,0.0552672,0.4645664,0.7612458,32.8785092,-8.8016508,-106.650984,-47.9103088,-11.4341976,16.4405858,-0.9591094,0.0723054,-0.200694,149.93514720000002,76.652774,166.1638856,175.71811660556423,0.8935164080320182,51.92717424927304,0.982546178901287,117.056638,85.4544248,272.8148696
1998.569,34.5089732,155.4930816,-72.5359312,-0.0018335999999999,0.4991907999999999,0.8191242000000001,33.505249799999994,-5.3838642,-106.1576368,-43.631465000000006,-6.895897,19.1675854,-0.9887742,0.0957164,-0.1764882,147.4694398,76.58545219999999,164.524579,175.01551066072318,0.9592493272967358,48.15240869932809,1.0089519971504293,113.96419,81.9693164,270.6822158
2018.554,29.456938,154.3772398,-75.70584699999999,-0.0819072,0.5456328,0.8003688,34.062333,-1.9551422000000005,-105.6969098,-40.2018644,-1.6648594,19.3734214,-1.0140338,0.1018346,-0.1546986,145.28847660000002,76.43190159999999,163.10887780000002,174.44603358801243,0.9721183867519018,44.6574866601305,1.0308086583559335,111.2261436,78.3870438,268.8057876
2038.54,28.186139200000003,154.1195922,-77.5646222,-0.1414699999999999,0.5146858,0.7548085999999999,34.6203484,1.4790042,-105.2387418,-38.7432562,3.0037432,19.581979,-1.0253214,0.1012189999999999,-0.1518186,143.3679658,76.1971528,161.93023699999998,174.824419804342,0.9244735021922478,43.51455245945689,1.0414308169844602,108.7476174,74.71814859999999,267.1689788
2058.526,39.8999278,152.7567962,-77.3647734,-0.1998285999999999,0.520222,0.8202968,35.4409768,4.879932,-104.7517134,-32.4760412,6.865553199999999,18.0600278,-1.0233794,0.11638,-0.1477134,141.8797456,75.908905,161.06798419999998,175.81794898976298,0.9916900920913752,37.788803591843184,1.040513791010922,106.4387688,71.028973,265.8196976
2078.511,38.5191494,149.7181274,-79.8112472,-0.2579178,0.5767404,0.8277352,36.2663804,8.2604614,-104.2872282,-25.0072654,9.378771400000002,17.2551608,-1.0212651999999998,0.1258572,-0.1328736,140.74034120000002,75.5878372,160.4110414,173.9801072602315,1.041295655358285,31.797252239672407,1.0375345956158954,104.4739608,67.3273758,264.6982696
2098.497,31.0990884,148.03132639999998,-82.28761899999999,-0.3434681999999999,0.5928666,0.7658544,36.966218000000005,11.6325238,-103.83562,-20.9473744,9.0639508,13.7119386,-1.0251959999999998,0.1089777999999999,-0.12168,139.9533844,75.3204102,160.0309144,172.19662928101556,1.0276157705125784,26.62639589822036,1.0381276519334408,102.9871664,63.6878864,263.8665344
2118.483,32.8268274,146.97431039999998,-83.39234780000001,-0.3901998,0.5741602,0.763363,37.726774,14.9994628,-103.368396,-15.746516,8.8977046,13.381049199999998,-1.029083,0.1129518,-0.1342207999999999,139.3143586,75.05629719999999,159.6951416,172.14334778405205,1.0318133983202002,22.49831973681452,1.043927752847332,101.5875846,60.05683439999999,263.0635376
2138.469,41.6087938,143.9694,-83.816617,-0.4379136,0.5841136,0.814541,38.6849894,18.3206196,-102.8889588,-8.8823982,10.670255,11.4428992,-1.0076556,0.138554,-0.1293216,138.9651398,74.7841232,159.521054,171.70819765863132,1.0938162823120343,17.99142244653682,1.025324873078733,100.2801504,56.4635036,262.4100128
2158.454,38.5702508,139.3079558,-85.6793778,-0.5077722,0.6271692,0.7617924,39.6112726,21.592379,-102.43353419999998,-8.290801400000001,12.4659084,9.0474262,-1.0053718,0.1577606,-0.1358912,138.8281098,74.50876020000001,159.5564116,168.03370666668275,1.1097303605918152,17.492632190035867,1.0267070085399437,99.2168372,52.9163812,261.98994580000004
2178.44,34.2059346,135.8743072,-86.1390976,-0.5865888,0.6140748,0.7051966000000001,40.4704354,24.7990794,-101.972435,-11.4315662,9.6038482,2.6201244,-1.0423264,0.1589802,-0.1411813999999999,138.85852659999998,74.3642122,159.8295958,164.4743671648618,1.1038462415264363,15.15848468367142,1.0637909643510608,98.3880912,49.5651328,261.8020308
2198.426,38.467916200000005,133.5434936,-84.2035432,-0.6134980000000001,0.610406,0.7194383999999999,41.4679116,27.940644,-101.4445648,-11.1407638,6.323487199999999,0.1903726,-1.0193128,0.1544654,-0.1549546,138.8904998,74.30160839999999,160.0968016,162.4927135200152,1.1254185409146946,12.811688028623903,1.0425301300692271,97.4225882,46.3609644,261.5413664
2218.411,39.0155774,129.5695862,-82.7351884,-0.65357,0.625639,0.7613462,42.527808400000005,30.9889282,-100.8688948,-8.8658986,4.696640799999999,-3.0159074,-1.00386,0.1468963999999999,-0.1608426,139.0822784,74.3048052,160.48113700000002,158.60518386067372,1.1824660415738963,10.476559083739344,1.0272213947867908,96.55447,43.315877,261.3500318
2238.397,30.7683678,123.749698,-81.4696642,-0.7245424,0.6395009999999999,0.6888626,43.4636246,33.930645000000005,-100.2806654,-7.3017232,-4.9246762,-5.4757256,-1.0253514,0.1354622,-0.1693121999999999,139.010968,74.48855,160.557782,151.32080622646723,1.1867834259364762,10.370687933341744,1.0480277296806797,95.5473434,40.557905000000005,260.8384474
2258.383,27.5763146,118.475664,-78.7403964,-0.7770340000000001,0.6100576,0.6293382,44.3716774,36.742657,-99.6628432,-2.6746628,-19.3615002,-9.0720486,-1.0207364,0.1224202,-0.1434096,138.5187346,74.94080980000001,160.102182,144.90336818855593,1.1713320120499568,21.548168759527243,1.0380056921930438,94.1470572,38.1981528,259.7650252
2278.368,31.610873200000004,114.5146822,-74.85976439999999,-0.7892942000000001,0.6096962,0.6238085999999999,45.4416122,39.4403414,-98.9586928,3.0141090000000004,-23.5089888,-8.2109802,-0.9785568,0.1387198,-0.1432434,137.8189452,75.42585,159.31721499999998,140.41668016961867,1.1763723729678626,25.08341291186665,0.9986667439050126,92.377333,35.9855086,258.2759078
2298.354,30.1917836,110.412021,-72.125989,-0.8169788,0.6150946,0.657061,46.5648192,42.0231126,-98.1688216,7.4866022,-29.6823272,-8.0181558,-1.0239878,0.1526864,-0.1490904,136.7792236,75.9856416,158.0930206,135.2941848989889,1.215534814112537,31.644598005694085,1.0459885748257292,90.2144044,33.962529,256.2618422
2318.34,25.9300272,105.1822328,-68.763688,-0.8566444000000001,0.5904764,0.5419792,47.684819,44.4824692,-97.3088958,9.3217082,-45.7218972,-9.7460782,-1.0250738,0.156205,-0.1198843999999999,134.7384644,76.7919816,155.80819379999997,128.31256054941574,1.173134033365736,47.6694049429383,1.043814431225589,87.05364540000001,32.3095124,253.1170896
2338.326,25.5598714,101.0787858,-62.962886000000005,-0.886185,0.5787986,0.5154232000000001,48.9141342,46.7931366,-96.3116698,10.0649948,-52.9351692,-11.4966096,-0.9774358,0.1509528,-0.1053164,132.0538436,77.69784100000001,152.85476060000002,121.79717968095902,1.1772819325400352,55.09635460583093,0.9946150185164307,83.1397094,30.9047044,249.1664304
2358.311,23.7551964,98.403122,-57.867903,-0.8921678,0.5759186,0.505394,50.2471542,48.9805558,-95.1535292,12.4672638,-50.3365594,-8.8744748,-0.961745,0.143587,-0.1400085999999999,129.1625808,78.49396220000001,149.64654539999998,116.6026499397285,1.1760394178847915,52.611388328615256,0.982432226501126,78.9154266,29.5134064,244.8000746
2378.297,18.5197318,95.6952224,-53.4612838,-0.9138326,0.5656066,0.4994588,51.6017106,51.0371072,-93.8450072,16.0716966,-54.3089486,-8.527180399999999,-1.0284268,0.1053552,-0.1323426,125.7132064,79.31882479999999,145.80097339999998,111.16953234440422,1.185099126522233,57.27542348349802,1.0422456355869476,74.11149580000001,28.2817176,239.6459806
2398.282,14.655851199999995,90.566191,-49.73531419999999,-0.9405978000000002,0.5325553999999999,0.4228498,52.94702,52.9545626,-92.4735578,21.1699576,-59.864695000000005,-11.811489599999998,-1.0120488,0.1000668,-0.0853353999999999,121.338919,80.2092208,140.9262024,104.35818322114343,1.1606642187963063,64.58684152983277,1.0205578222407783,68.391899,27.2546582,233.3997602
2418.268,15.7158876,84.1693344,-45.0219536,-0.9706726,0.528547,0.4004228,54.3751458,54.6993624,-91.041522,25.3905046,-55.407,-15.472769,-0.9597644,0.1122109999999999,-0.1094352,116.8035902,81.0369522,135.8147142,96.73904218233407,1.1755448295831172,62.880998349024175,0.9724788301178592,62.4284444,26.3375898,226.8562362
2438.254,14.4950986,77.2798134,-42.196167,-0.9682262,0.5123536000000001,0.3743702,55.777919,56.2955774,-89.62859639999999,28.812569199999995,-50.41159,-13.622017200000002,-0.9709554,0.1158353999999999,-0.1220079999999999,112.0784926,81.7244674,130.4514634,89.2344885795533,1.1576360535364474,59.6410253334899,0.9854228436292312,56.30057359999999,25.42889,220.0800598
2458.239,12.7675788,69.7672568,-39.1819794,-0.9711206,0.505568,0.3605156,57.115162,57.7311716,-88.2668152,29.302142,-50.1787706,-12.1477998,-1.0270566,0.1044211999999999,-0.0862748,106.7867278,82.33275599999999,124.5146882,81.02906083321822,1.1526689551695752,59.364076550523954,1.0359499928703315,49.6715658,24.6015844,212.7815034
2478.225,10.0897796,61.5551482,-36.3246242,-0.9664502,0.4772611999999999,0.3380846,58.3272652,59.0127474,-87.0072372,31.8641166,-49.8326204,-14.3368056,-1.0140328,0.1201911999999999,-0.037878,100.72739099999998,82.8835282,117.763872,72.18253421411418,1.1296483695657866,60.86177763950938,1.0218332480973988,42.4001258,23.870780799999995,204.7711092
2498.211,9.5060836,55.0759772,-32.1239558,-0.9559112,0.4773426,0.3097903999999999,59.5296166,60.130909,-85.76857759999999,30.9940568,-42.6639016,-17.564976,-0.963475,0.1314334,-0.0686312,94.825476,83.363608,111.1964174,64.46454394615277,1.112471245467657,55.58208738916419,0.9748174474608056,35.2958594,23.232699,196.964995
2518.196,6.5012384,51.5425748,-29.029148400000004,-0.9299478,0.470269,0.2989458,60.709008,61.1330972,-84.4990846,25.1699012,-37.6032308,-17.238995,-0.986277,0.108371,-0.0672678,88.6654388,83.7562928,104.492093,59.51129787339923,1.084123809545515,48.42220401454125,0.9944905988931418,27.956430800000003,22.623195600000003,188.9911776
2538.182,4.848079799999999,50.5992428,-26.971410400000003,-0.9034144,0.4608022,0.2882538,61.94135980000001,62.06693740000001,-83.1475144,23.7718768,-34.138129000000006,-16.400360600000003,-1.0279745999999998,0.0905884,-0.0387014,82.61362160000002,84.07567759999999,97.928679,57.543411687575045,1.054318025486921,44.7156103170364,1.0326838019557,20.6722618,22.0087402,181.0761934
2558.168,4.9706054,50.168562,-25.5393448,-0.8969888000000001,0.4394548,0.2831633999999999,63.2490562,62.9568238,-81.7229064,25.2914672,-31.6102694,-20.3549684,-1.0193704,0.0878082,-0.0163174,76.5373216,84.40846260000001,91.3147096,56.51415454559716,1.0382152665358184,45.312163744785465,1.02327540277589,13.288265400000004,21.4516388,173.037616
2578.154,7.097611000000001,48.8691808,-23.7674106,-0.908973,0.4306751999999999,0.254028,64.67849659999999,63.79399479999999,-80.225261,25.9246422,-26.0095538,-21.7850284,-0.9736534,0.1064846,-0.0349358,70.95570080000002,84.70419159999999,85.18778999999999,54.803856804055336,1.037421451199097,42.69861150508201,0.980081845301891,6.277204200000002,20.9101968,165.41305100000002
2598.14,6.3441344,46.2301398,-21.993434,-0.9313764,0.4236221999999999,0.225357,66.1206392,64.567913,-78.7110184,23.9316028,-20.313591,-19.4350424,-0.9747086,0.1119376,-0.0466988,65.95991760000001,84.94349659999999,79.6915132,51.586674697301085,1.0477134838584448,36.91997379443878,0.9822258697108114,-0.1607215999999994,20.3755836,158.4025316
2618.125,6.91151,42.1743022,-20.2795546,-0.9479206,0.4065744,0.208622,67.51878380000001,65.2709998,-77.2678482,24.442889,-14.8916982,-12.9299196,-0.9922756,0.1259542,-0.0312354,62.3554826,85.06898340000001,75.58190160000001,47.30434516311801,1.0523209327594505,31.407010663364133,1.0007252255570256,-5.163301200000002,19.7979836,152.8497498
2638.111,8.6841134,36.7458252,-18.2720522,-0.963643,0.3972407999999999,0.2064498,68.82071859999999,65.885057,-75.9741012,22.326726,-9.517458200000002,-10.6761674,-0.988466,0.1346628,-0.029117,60.0220116,85.1836548,72.790149,41.9468400093802,1.0625580476160723,26.51500056233539,0.9980214940314864,-8.798707000000002,19.2985978,148.7642502
2658.097,9.357137,31.034856800000007,-16.2426118,-0.9654208,0.3935616,0.1890414,69.9941332,66.4088806,-74.8435838,16.7085274,-4.5289158,-8.1645918,-0.9783868,0.1346265999999999,-0.028033,58.7477578,85.28556979999999,71.1745392,36.2565964690396,1.0595587312561583,19.140180915045388,0.9880034923677142,-11.246375400000002,18.8766892,146.018123
2678.082,7.724470799999999,25.5260174,-14.423524600000002,-0.9613784,0.3911698,0.1828333999999999,70.96757219999999,66.8489792,-73.8993806,8.3884514,-0.8791410000000003,-6.6966372000000005,-0.9918756,0.0995207999999999,-0.0171564,57.971513400000006,85.40047460000001,70.227208,30.31968131976259,1.0538929227270482,10.769584744848189,0.9970034792160756,-12.996058800000004,18.5514954,144.1265886
2698.068,9.8365546,19.9623606,-13.1362114,-0.9515214,0.3906362,0.1671466,71.8008194,67.218564,-73.15766920000002,4.3472764,-0.3208692000000001,-4.646667800000001,-1.022425,0.0633062,0.0255618,57.33431459999999,85.4858216,69.5013778,25.842091576896472,1.042078500545885,6.37128643093861,1.0247018889426718,-14.4665048,18.2672576,142.65904700000002
2718.054,12.0808486,15.3664748,-11.824974,-0.942265,0.3886585999999999,0.1686236,72.503012,67.52566399999999,-72.60872359999999,3.499928,-1.7254848000000005,-6.7294436000000015,-1.0319634,0.0493494,0.0596593999999999,55.910427000000006,85.583075,68.0050216,22.84525028919213,1.0331276571924304,7.778959118403696,1.03486379114755,-16.592584999999996,18.057411,140.61374519999998
2738.039,12.3219066,11.6569456,-10.0081972,-0.9433282,0.3961214,0.169009,73.0770018,67.7672792,-72.2044618,4.538964200000001,-4.3222184,-9.3461958,-1.0196324,0.0423326,0.072083,53.50433340000001,85.6885452,65.5035636,19.694612821138957,1.0369880898709494,11.25322815187348,1.0230533901226857,-19.5726684,17.921265999999996,137.7080254
2758.025,10.860865399999998,8.3817456,-8.285311199999999,-0.9408146,0.3964832,0.1643826,73.5038192,67.9531144,-71.92931819999998,7.469910799999999,-5.1050152,-10.585093200000005,-0.9959952,0.0445727999999999,0.0584895999999999,50.8550382,85.8027908,62.6988952,16.026803743132376,1.0340951013510122,13.924975605180569,0.9987062662420017,-22.648781,17.8496764,134.6282134
2778.011,12.677077,5.13497,-6.098751399999999,-0.9425302,0.4078526,0.1682772,73.8452438,68.07069859999999,-71.7856734,9.5048748,-4.2883738000000005,-8.658611800000001,-0.98704,0.0571168,0.0357734,48.8029096,85.8917404,60.4509116,14.975679176712854,1.040684456153084,13.55375789643967,0.9893381760499288,-25.0423342,17.8210418,132.23658500000002
2797.996,11.7944796,1.3017391999999997,-3.837541,-0.9484321999999998,0.4181042,0.1904352,73.9919708,68.1159576,-71.8275374,10.034056,-3.0885168,-6.530503400000002,-0.9884964,0.0812754,0.0227628,47.5330512,85.95363,58.97509,12.471206633935378,1.0538502386266844,12.364007865268844,0.9920932257212324,-26.458919599999994,17.8376724,130.80262739999998
2817.982,8.4588856,-4.635450199999999,-1.1374331999999998,-0.965587,0.4398554,0.2033768,73.8230012,68.067465,-72.1357602,9.1892522,-0.568024,-4.709251000000002,-0.9938236,0.097138,0.0152896,47.1979224,86.0144592,58.45234380000001,9.712563947538756,1.0803671367902672,10.34127904278682,0.9986765796939068,-26.6250788,17.9469942,130.588104
2837.968,3.8592434,-13.1415472,2.1642334,-0.9793944,0.4525014,0.2116986,73.21922459999999,67.90046219999999,-72.81142700000001,5.490814800000001,2.0642844,-3.590313200000001,-0.9978628,0.0967668,0.0113024,47.5358206,86.0952972,58.6784844,13.866431719802572,1.099448591338076,6.877547973375152,1.0026074632935065,-25.683404,18.194835,131.4899114
2857.953,-0.0354841999999997,-23.3637138,6.719907600000001,-0.9971706,0.476222,0.2357318,72.1492784,67.570407,-73.9017682,0.8965546000000003,3.8987996,-2.6994184000000017,-0.9992603999999998,0.0852362,0.0126112,48.2578566,86.1927306,59.382431,24.310934572930304,1.1299141915736788,4.826106937273551,1.0029683939008447,-23.891421800000003,18.6223236,133.2841992
2877.939,-6.844264,-34.194166,11.5669266,-1.001466,0.4909659999999999,0.2549596,70.576323,67.06281440000001,-75.3845014,-0.0469377999999997,5.1698206,-0.7167688000000012,-0.9972276,0.0946388,0.0211516,49.6483756,86.266133,60.7748726,36.74069581686008,1.1441093304156555,5.2194832795887605,1.001931524032336,-20.9279474,19.2033186,136.159374
2897.925,-13.411672,-45.2223632,17.341571,-1.0017308,0.5058176,0.287974,68.5768678,66.360437,-77.19606759999999,-0.8847303999999999,6.2995512,-0.0374706000000013,-0.9991304,0.0811238,0.0317062,51.2984022,86.3415618,62.4447404,50.255996298713846,1.1585530047496315,6.361485459228054,1.002919692821434,-17.278465599999997,19.9811248,139.64080800000002
2917.91,-19.3237776,-56.5433388,23.5942508,-1.002258,0.5229054,0.3287054,66.233146,65.43270340000001,-79.2693022,-0.730154,7.0037374,0.1536949999999987,-0.9976852,0.0512167999999999,0.0293225999999999,53.055979,86.43381500000001,64.2198808,64.24364726725241,1.17728433095082,7.04337167732186,0.999429203981973,-13.177167,21.0011116,143.489183
2937.896,-25.015642,-68.251693,30.1418422,-1.0066264,0.5477228000000001,0.3719182,63.63257539999999,64.2431472,-81.5297972,1.970642,7.2216026,0.9971351999999988,-0.9975274,0.0475016,0.0342084,55.064496600000005,86.5110778,66.19219819999999,78.69311655569446,1.20483198924499,7.551771488304569,0.999243479029951,-8.568078799999999,22.267930600000003,147.7219954
2957.882,-32.3913848,-80.9057436,36.615557,-1.0143414,0.5613436,0.4050588,60.8092636,62.7761084,-83.9155852,4.3681302,7.7838982,2.1505741999999985,-1.0009194,0.0707798,0.0454563999999999,57.561322,86.55505980000001,68.60501719999999,94.52851512189778,1.228034097438813,9.181209180811694,1.004447962656782,-3.2479415999999985,23.778951400000004,152.52060239999997
2977.867,-37.265646,-94.9552538,43.551279,-1.0284722,0.5689672,0.4461275999999999,57.8548858,61.000482,-86.390634,2.9217758000000003,8.249981,2.3913327999999985,-1.0029778,0.0814262,0.0481366,60.20402839999999,86.5821778,71.1928422,110.91412217817698,1.257182793523058,9.072895507288866,1.0074283228095386,2.3491426000000013,25.5816958,157.5834762
2997.853,-41.0219334,-109.90656140000002,51.1936798,-1.0477666,0.5825701999999999,0.4866042,54.8522368,58.8728224,-88.8857374,-0.4213767999999998,9.946824800000002,3.7152439999999984,-0.9939738,0.0956792,0.0228735999999999,63.67142799999999,86.5821886,74.6725068,127.99626600065696,1.2938263150288911,10.6263784982942,0.9988301286885772,8.819191200000002,27.7093662,163.5582442
3017.839,-45.982525800000005,-124.6014634,58.8634446,-1.0581914,0.5942936,0.5331126,51.863480200000005,56.38793940000001,-91.3092298,-2.2827306,12.5122512,6.272539799999999,-0.9923904,0.1209238,-0.0039136,68.3195496,86.5212908,79.37074600000001,145.2749891431642,1.3255802375992485,14.181397837542738,0.9997382595877584,16.4560694,30.1333514,170.67997580000002
3037.824,-50.9728472,-137.9257004,66.3451148,-1.0541534,0.60784,0.5694842,48.988378,53.569757800000005,-93.5470626,-5.4864408,15.034479200000002,8.3518622,-1.0002694,0.1240858,-0.0215422,73.77545,86.4134494,84.9420778,161.31771210976893,1.3435107407018376,18.052429190414408,1.0081667643395311,24.787072,32.8436916,178.4891404
3057.81,-52.843368,-149.74974360000002,73.6045058,-1.035908,0.6243601999999999,0.6120274,46.334301,50.4411842,-95.5442734,-8.6006344,16.9603498,9.877989799999998,-1.0013223999999998,0.120244,-0.0383208,79.667511,86.2619464,91.0131516,175.02865629350927,1.355547336745862,21.42893044250523,1.009244099309181,33.33321,35.8207622,186.557425
3077.796,-54.11782780000001,-160.57357480000002,79.8224074,-1.0092614,0.637799,0.6538094,43.912217,47.0337394,-97.298642,-11.2277738,18.1901742,10.164020999999998,-1.0051786,0.1140766,-0.0475932,85.5205382,86.08517320000001,97.0990036,187.30784535884564,1.361199055781086,23.669657049031212,1.0127500191319476,41.6083212,39.0514338,194.3976456
3097.782,-55.4914178,-170.029309,85.0951186,-0.973012,0.6477231999999999,0.6825553999999999,41.7122926,43.3897706,-98.8129198,-14.518990000000002,17.5450584,9.8890122,-1.0091264,0.1170478,-0.0383202,90.533789,85.8761064,102.4115814,198.0667629311382,1.3535802783844777,24.827861510231997,1.016614340047316,48.82149640000001,42.486335800000006,201.2245012
3117.767,-54.7734032,-177.946225,89.655577,-0.9250878,0.6527765999999999,0.7033102,39.76133660000001,39.5472946,-100.0954822,-19.5918712,16.2753106,9.1807784,-1.0056322,0.118157,-0.034029,94.5091964,85.6499756,106.787834,206.64730140280884,1.3328728238809733,27.07422841511404,1.0131214987191022,54.747859800000015,46.102681,206.8833162
3137.753,-51.9937226,-185.03479,93.0224366,-0.8692667999999999,0.648672,0.7261257999999999,38.0540688,35.53998059999999,-101.1925432,-23.427128,15.598406799999998,8.592040999999998,-0.9912844,0.1226221999999999,-0.043496,97.8801148,85.4123108,110.6362014,213.52843934977577,1.3052428167172114,29.427262692482135,0.9997864110059708,59.826046000000005,49.8723302,211.8287446
3157.738,-48.693435,-191.5664032,95.610054,-0.8132795999999999,0.632877,0.7534066,36.5559158,31.385849400000005,-102.1460114,-27.6115138,15.939999599999998,8.3170466,-0.9768386,0.125971,-0.0542127999999999,100.915686,85.1572708,114.233554,219.56780245055768,1.276549454517419,32.94924195975018,0.986418456323076,64.3597702,53.7714214,216.3795654
3177.724,-47.6138856,-196.6917572,98.4018844,-0.7573462000000001,0.6406294000000001,0.773108,35.2127448,27.0949432,-102.954599,-31.773067000000005,18.0192254,8.7844134,-0.9688816,0.1216888,-0.0679854,103.9737672,84.866446,117.9385558,225.02813225422412,1.2576467208492217,37.56842010764618,0.9788573611498051,68.7610224,57.77150279999999,220.8931548
3197.71,-47.7769684,-201.1275544,98.971756,-0.696974,0.6094074,0.7868459999999999,33.9577288,22.7004926,-103.6712188,-34.6253196,21.4955656,9.031581,-0.9700238,0.1098301999999999,-0.0710176,107.2676514,84.5406692,121.9397994,229.19498322202236,1.2150213016925917,41.74376065025297,0.9788014839119524,73.30992260000001,61.84017659999999,225.6110182
3217.696,-43.654795,-205.3539918,99.3190934,-0.6372405999999999,0.5742572,0.8070938,32.8599256,18.2077708,-104.3125854,-37.19884259999999,25.3792538,8.547520599999999,-0.979356,0.0958868,-0.0634814,110.7995316,84.1886124,126.2346878,232.25047984554175,1.1778146356870591,45.83579957447904,0.9860843479622824,77.939606,65.98084159999999,230.5472732
3237.681,-39.39477,-208.5164064,99.9385636,-0.5724784,0.5566148,0.8231819999999999,31.9104798,13.6302354,-104.8815934,-39.418808,29.6515208,8.234697999999998,-0.9852394,0.0923085999999999,-0.0502978,114.5225678,83.7923356,130.77012480000002,234.5607727983392,1.1468130445585278,50.00865286172884,0.9908316817861448,82.612088,70.16210020000001,235.6517182
3257.667,-41.4534744,-210.061078,99.3354448,-0.4999247999999999,0.5372408,0.818668,30.975329,9.0136376,-105.3906542,-40.3792626,34.732196,7.899901799999998,-0.9969842,0.0887852,-0.0424126,118.4555146,83.3330964,135.5409012,236.033001133247,1.0994406655493874,53.84439372443354,1.001827897109798,87.4801856,74.31945879999999,240.9315554
3277.653,-38.7393318,-211.6410402,97.5040088,-0.423758,0.4721908000000001,0.8199757999999999,30.137183600000004,4.3795392,-105.8681994,-38.394445000000005,38.3888816,7.393606199999999,-1.007387,0.0750472,-0.0324572,122.36043399999998,82.82542880000001,140.2489076,236.21959583683773,1.0367715788708136,54.79511885193354,1.010699816873774,92.2232504,78.44588960000002,246.11710700000003
3297.638,-29.3507054,-212.8550386,97.5377124,-0.3401628,0.4561499999999999,0.8205667999999999,29.528267600000003,-0.2815833999999999,-106.2952074,-34.799986000000004,42.0732368,7.4539377999999985,-1.0087275999999998,0.0762029999999999,-0.0228154,126.1261522,82.2482286,144.75101320000002,235.97105056576368,0.9985556700885936,55.106782424265525,1.0118590863790864,96.5978846,82.529812,251.04622060000003
3317.624,-28.8358358,-212.4068604,96.1890826,-0.2614718,0.4480526,0.7934281999999999,28.967355,-4.9260612,-106.6951234,-31.6938276,46.3944328,7.458834999999999,-1.0139489999999998,0.0888278,-0.0225368,129.7700762,81.58209839999999,149.0754456,234.9479078066014,0.9479699062297494,56.67959352650179,1.018081951518678,100.8027212,86.5081596,255.770569
3337.61,-31.032374200000003,-211.1371858,93.9207292,-0.1822922,0.4153509999999999,0.7715552,28.3932644,-9.5302286,-107.0783844,-30.477696,48.419867,7.638568199999999,-1.0253295999999998,0.0931996,-0.0368212,133.088724,80.85545959999999,153.053009,233.1587932064589,0.8950107965990578,57.72106372817601,1.0302149071168405,104.6954596,90.3856882,260.1313934
3357.595,-25.472765000000003,-210.3459352,91.0257982,-0.1005338,0.3683142,0.7454052,27.9653412,-14.0965754,-107.4704788,-28.3566602,49.04584440000001,7.841591399999999,-1.0337876,0.0807788,-0.0405004,135.96635759999998,80.0973754,156.548285,230.60782759883705,0.8374910787889743,57.19340509439729,1.0377293957691285,108.0010164,94.1939508,264.01876380000004
3377.581,-17.9321658,-208.4439758,89.153798,-0.0172745999999999,0.3594226,0.7187006,27.7183068,-18.6140098,-107.8596206,-24.3669378,47.3411654,8.235979999999998,-1.031425,0.0879316,-0.0528286,138.3523926,79.33696739999999,159.47022099999998,227.4177946322901,0.8037496933973164,53.87731401749373,1.0365135589472625,110.6340858,97.9509772,267.3298416
3397.567,-19.1054846,-204.54469,85.4066026,0.059827,0.3446398,0.670151,27.4848542,-23.0289896,-108.2721238,-17.286516,41.2916162,8.814513999999999,-1.0519434,0.0835096,-0.0749194,140.17741999999998,78.6488616,161.680533,222.4810947399155,0.7559485594099906,45.62364366074409,1.057909110742544,112.69256579999998,101.6778512,269.9526568
3417.553,-18.61635,-199.8433686,81.359546,0.1425724,0.3132334,0.6402208,27.3017666,-27.318136600000003,-108.710962,-9.8296414,30.129743,7.989672399999999,-1.067468,0.0720884,-0.0914908,141.3494506,78.13827359999999,163.07514959999995,216.57173450393768,0.7268594945860996,32.684218337876224,1.073804095225568,114.047684,105.4564102,271.7861116
3437.538,-14.2327908,-194.9076812,76.06986020000001,0.2206746,0.2791232,0.5929228,27.2612096,-31.4679214,-109.209958,0.3267488000000004,18.039169,6.395690599999998,-1.068621,0.0656634,-0.0996966,142.034329,77.8350982,163.7658784,209.7097998558125,0.6914943865449957,19.14218486066287,1.075268308745366,114.7731194,109.3030196,272.97583640000005
3457.524,-8.7542494,-188.8894438,71.0789834,0.2865221999999999,0.269375,0.5599566,27.3981582,-35.4614226,-109.7761598,9.8714998,1.2453273999999994,2.4512813999999987,-1.0742258,0.0695972,-0.1176156,142.17575660000003,77.8362458,163.706369,202.01010059600543,0.6842581790533454,10.247249832836944,1.0828842361937123,114.7775984,113.2976684,273.4825288
3477.51,-10.1163534,-181.0127684,65.11851899999999,0.3491788,0.2619738,0.500078,27.5955084,-39.2591768,-110.4307726,16.6951024,-15.951354600000002,-0.3897754000000011,-1.0794089999999998,0.0675136,-0.1135556,141.59100640000003,78.1432008,162.7667602,192.6353665521964,0.6638027661435888,23.0938104821156,1.0874634475499945,113.995498,117.4023776,273.1975328
3497.495,-10.800994,-172.29364900000002,58.4739824,0.4118772,0.2273698,0.4651108,27.8751254,-42.8463258,-111.18552100000002,19.7973608,-26.565314,-4.285394600000001,-1.0705124,0.0557006,-0.1247733999999999,140.7154296,78.6583314,161.4660582,182.26620524616945,0.6615647437012647,33.40682579117151,1.0791977375540036,112.8403042,121.5046572,272.6515792
3517.481,-5.8243204,-162.8255734,51.8157556,0.4658702,0.2011776,0.4170645999999999,28.3637394,-46.2129814,-112.0517854,25.716680199999995,-31.0558872,-7.162775200000001,-1.0574606,0.0703535999999999,-0.1287896,139.8295562,79.26569520000001,160.035733,170.97064832759912,0.6568488034266029,40.95266925188065,1.06759510613972,111.4658168,125.4786766,272.0875184
3537.467,-0.9882042,-151.2116926,46.5576502,0.514221,0.196661,0.368075,29.0449112,-49.3264618,-112.9964174,28.1354078,-34.085253800000004,-8.082754600000001,-1.0586584,0.0854588,-0.1288282,138.7267852,79.91656800000001,158.3390594,158.21999658274345,0.6622522113115215,44.93035299890862,1.0698866853565567,109.681874,129.2430298,271.33547680000004
3557.452,-2.7804494,-137.1542524,41.2527818,0.5702444,0.1942374,0.3090241999999999,29.7582692,-52.1405632,-113.9857254,28.298843999999995,-33.749057,-5.559284000000002,-1.0598278,0.091375,-0.1137652,137.2074432,80.5185822,156.22106939999998,143.2508703516571,0.6770545025887945,44.39289423678345,1.0698256292540762,107.449174,132.6591454,270.2067948
3577.438,-3.2472872,-121.6794036,35.253376,0.6281914000000001,0.1733844,0.2637022,30.4969106,-54.6195786,-114.9914184,27.7902342,-27.8779908,-4.805879400000001,-1.0465384,0.0992888,-0.1388318,135.9286926,80.994069,154.3599518,126.72498827779924,0.7030116894349341,39.65571793251357,1.0603655771342448,105.431782,135.6136476,269.3513702
3597.424,1.4441130000000002,-104.7096694,30.402488600000005,0.6845458,0.1631646,0.2184924,31.309137,-56.74249040000001,-115.9457398,28.2339114,-24.1924718,-6.326657400000001,-1.0443066,0.125997,-0.1295708,134.9289154,81.42349700000001,152.775702,109.04362265298782,0.7368612948503673,37.715461532292295,1.0598302274540012,103.6197784,138.1659874,268.7214418
3617.409,4.971128200000001,-85.6756058,26.6711162,0.7417416,0.1719146,0.1866364,32.0828816,-58.488672,-116.7492278,24.838665,-22.3570664,-7.201076800000001,-1.0322920000000002,0.1312462,-0.1249792,134.0253052,81.83208479999999,151.35819099999998,89.86862625038691,0.7839441157816545,34.185570114826696,1.0480802157807771,101.9424236,140.3207568,268.1074188
3637.395,5.426853599999999,-65.4884624,22.7050098,0.7914123999999999,0.1704024,0.1610619999999999,32.687032,-59.843457,-117.3335036,24.5736248,-17.154321200000002,-7.944918600000003,-1.003643,0.1267406,-0.1383746,133.66854560000002,82.17009139999999,150.4986482,69.52486546215061,0.8254159755199313,31.00412074554881,1.0210337805687528,100.9815136,142.0135484,267.8321518
3657.381,10.0163174,-44.7582296,19.1211272,0.8211845999999999,0.1607314,0.1573644,33.1400438,-60.8126038,-117.631778,28.3820834,-8.2504846,-9.488714400000005,-0.9786672,0.1318362,-0.1670453999999999,134.449106,82.384755,150.7106172,49.69148052314842,0.8514354259780831,31.042694071619493,1.0015360391156376,101.3090622,143.19735880000002,268.34239519999994
3677.367,17.307183000000002,-24.754017,16.0295194,0.831326,0.165066,0.1698865999999999,33.472205599999995,-61.4202652,-117.6198502,30.8583556,0.8464109999999991,-8.822519000000002,-0.9870202,0.134623,-0.164318,136.0606354,82.4551224,151.712729,34.19423099335258,0.8644137663709204,32.10593969069171,1.0096200436109817,102.5884298,143.8753876,269.33257919999994
3697.352,21.047328,-5.7601016000000005,12.5361726,0.8220812000000001,0.186182,0.1871508,33.6389758,-61.6811264,-117.3269088,31.3945024,11.0826654,-4.643992800000001,-0.9644724,0.127701,-0.1734788,138.19064640000002,82.3081606,153.22819839999997,25.16593749175455,0.8634272745622993,33.61557559284706,0.9882355234518744,104.5516706,143.98928700000002,270.5551072
3717.338,22.0000414,11.87862,8.4609282,0.8064654000000001,0.1833614,0.1958831999999999,33.6077058,-61.6198242,-116.7832688,31.7430592,23.6358126,1.1475887999999987,-0.9352728,0.113871,-0.1974886,140.7883454,81.87905599999999,155.2095734,26.39489989963344,0.8499282748852165,39.59280748685181,0.962654435501546,107.1806396,143.4988802,271.9928422
3737.324,26.0073084,28.5345804,4.3973770000000005,0.7871792,0.1758886,0.2283755999999999,33.444915,-61.2497934,-115.9990754,30.2408124,33.7858158,4.685123399999999,-0.9169376,0.1154902,-0.2039771999999999,143.6161134,81.2258592,157.4567658,38.85793732684358,0.8382978630522446,45.58441033025163,0.9464244537783456,110.1711984,142.4756526,273.4558412
3757.309,28.4076094,43.7286334,0.1895054,0.7688726,0.1835444,0.2478817999999999,33.1838188,-60.58334140000001,-115.0415176,24.3269848,41.1577758,6.705771199999998,-0.9114636,0.1151117999999999,-0.2013364,146.3332092,80.4161226,159.7169372,52.14615578497799,0.8284316559459567,48.27765596680567,0.9405067605228364,113.1493904,140.999464,274.75845480000004
3777.295,26.6651394,58.35978,-4.3868414,0.7499112,0.1936612,0.2626906,32.783927,-59.6158594,-113.9552154,17.357295,43.048333,7.076431,-0.8873024,0.1048256,-0.2064157999999999,148.71285400000002,79.5638506,161.78010559999998,64.31281332937151,0.8178495091392058,46.95221549079101,0.9170067818455652,115.928927,139.17971,275.735321
3797.281,25.4550794,72.9590178,-9.1652688,0.7383837999999999,0.179047,0.2698998,32.2651274,-58.3450174,-112.7526764,10.2662132,39.6830216,7.115123399999999,-0.877895,0.093892,-0.2170248,150.5634278,78.764145,163.45175160000002,77.81376162207604,0.8062966987105181,41.60243163291238,0.9091837561813564,118.2983004,137.1091624,276.204428
3817.266,27.4048284,87.5399054,-14.1139468,0.7248418,0.175877,0.2799954,31.7360404,-56.753101400000006,-111.4770598,3.978062,32.340052,3.6780779999999984,-0.874227,0.0900294,-0.2167978,152.012259,78.12586819999999,164.845407,92.8087450154759,0.7966967918709099,32.79073342291435,0.9051957945539738,120.2762186,134.87896959999998,276.3224668
3837.254,25.8253442,101.5031538,-19.8700482,0.7062042,0.1971598,0.297979,31.202681,-54.8446242,-110.2062376,-3.5947332000000003,21.352385,0.3156667999999989,-0.8772053999999999,0.0857654,-0.2152808,152.9677582,77.71751099999999,165.892108,106.6051473891634,0.7914466774677117,21.655163298761558,0.9072986501009244,121.7650772,132.5621352,276.0983456
3857.238,21.3231472,115.1126326,-26.6247882,0.6828687999999999,0.2063578,0.3161222,30.645229,-52.62392259999999,-108.98533,-10.4482892,10.487114,-1.3986558000000011,-0.8668666,0.089547,-0.2174394,153.3761202,77.5151764,166.5214538,120.06029375822096,0.7802734039855004,14.869517319089626,0.8981961144855393,122.7308912,130.13909900000002,275.5067838
3877.223,20.1935904,128.1762008,-33.2711302,0.6594764000000001,0.1934522,0.3191621999999999,30.1404538,-50.0975912,-107.8258268,-15.6967062,3.4405332,-3.465028200000001,-0.8583652,0.10002,-0.218344,153.50527359999998,77.4536072,166.9741516,133.95479703821826,0.7577581314315539,16.438682266417096,0.8913298599884557,123.3648198,127.5511984,274.7999784
3897.209,22.6454252,140.879277,-39.4412826,0.6275944000000001,0.2131506,0.3393397999999999,29.770466,-47.2787474,-106.7305754,-19.4495628,-0.092992,-6.912779600000002,-0.8498645999999999,0.1050818,-0.2200473999999999,153.67950760000002,77.48281399999999,167.550357,148.03851101542662,0.7446203120085834,20.641721401602727,0.8841565931842389,123.9090416,124.7615614,274.28093240000004
3917.195,20.117811,151.59232179999998,-45.9735724,0.5897704,0.2353126,0.4022436,29.4482156,-44.204872,-105.723648,-22.5905444,-2.1213672,-9.263251,-0.8488446,0.1034446,-0.2223468,153.9104646,77.5669342,168.24841299999997,159.68258423311076,0.7516655228064408,24.507972461519707,0.8835587358453086,124.462249,121.7718062,273.97206100000005
3937.181,18.7161678,160.2734712,-53.0782194,0.5481252,0.2354694,0.4271724,29.2127046,-40.9067924,-104.8364928,-24.477456,-0.7951163999999998,-11.017278200000002,-0.8550086,0.1002137999999999,-0.2276912,154.318149,77.63911900000001,169.165335,169.86811908739534,0.733732466593349,26.85439407727681,0.8904638085525093,125.1054444,118.5459114,274.00182779999994
3957.166,25.3020496,167.8756562,-59.0216414,0.4970562,0.2307244,0.4500867999999999,29.189585600000004,-37.4133818,-104.0316864,-26.9851052,0.5688704,-11.8256724,-0.8624934,0.0959584,-0.2304678,154.81145940000002,77.6927598,170.22069679999998,179.73865419572846,0.7091380276420381,29.468051240270118,0.8978965900430628,125.6218738,115.1061416,274.2523832
3977.152,33.295039,174.67720960000003,-64.5954848,0.4335744,0.278101,0.5182574000000001,29.4035624,-33.7440368,-103.2928772,-30.392588,-0.152594,-11.361354,-0.8654031999999999,0.094398,-0.2281862,155.1697878,77.75663460000001,171.207736,189.19107757027257,0.7306966943890743,32.44708083911242,0.8999458999543694,125.7662254,111.50067140000002,274.50061320000003
3997.137,30.214227800000003,178.2740176,-71.6469556,0.364993,0.30347,0.6041366,29.649904400000004,-29.93950880000001,-102.6661514,-34.1465186,-2.8717826000000004,-10.105674600000002,-0.8733661999999999,0.0971786,-0.2273464,155.2346558,77.85883340000001,171.97158180000002,194.49373038621007,0.7683065549691478,35.726132269291256,0.9076885948349026,125.5847514,107.7983422,274.6377332
4017.123,32.3919854,179.84933800000002,-78.43569319999999,0.2989308,0.2825164,0.607878,30.0333274,-26.04110900000001,-102.1600968,-38.3120002,-6.723347800000001,-7.762295200000001,-0.9155796,0.1004934,-0.2118222,154.836444,78.021927,172.34798560000002,198.8647355992424,0.7339555860824277,39.66441719900228,0.9451209297188164,124.8031166,104.06303599999998,274.50808240000003
4037.109,44.16814960000001,181.2796144,-83.3690962,0.225642,0.3085742,0.6436442,30.7077186,-22.062804,-101.7123308,-43.228775,-9.0987914,-2.404031000000001,-0.9326196,0.103362,-0.1967582,153.7583342,78.1874268,172.1309202,204.3612738199327,0.7486055071018914,44.24131957785957,0.958737091498707,123.0506156,100.2502308,273.84325099999995
4057.094,45.05571,182.518799,-88.3965574,0.1441143999999999,0.4103712,0.7213532,31.4571784,-18.011512600000003,-101.3080492,-45.594538,-10.7863054,3.5911691999999986,-0.9321214,0.1068866,-0.1824032,152.02906779999998,78.3286574,171.29784220000002,207.7428226249417,0.8423324291673924,46.990454092704205,0.9557959912909032,120.5718894,96.34017,272.6058914
4077.08,31.227174,180.7583986,-95.1330824,0.0726489999999999,0.4048872,0.7525078000000001,31.9886538,-13.927706,-101.0076434,-45.3595436,-9.3188888,9.0848326,-0.9445326,0.102529,-0.1729998,149.9468442,78.39156320000001,170.09886139999998,206.63745649660893,0.8576010208632451,47.189660598875776,0.9657033494318016,117.9581904,92.3192692,271.1065048
4097.066,35.9412258,178.4065644,-98.6688156,0.0019065999999999,0.3868534,0.7178706,32.646506,-9.8513628,-100.7600176,-45.0662628,-6.837570799999999,12.701705,-1.009715,0.100292,-0.1359199999999999,147.66365939999997,78.3924284,168.6896056,207.01741256455875,0.815473719110236,47.31864037681875,1.0237466058009668,115.0171534,88.2437912,269.4496232
4117.056,42.936817600000005,178.08821719999997,-101.0375336,-0.078318,0.493296,0.7686523999999999,33.4616396,-5.758167200000001,-100.5054094,-43.6883284,-3.8804976,18.011994599999998,-0.987546,0.1006672,-0.1322736,145.1442014,78.2750456,167.01008,209.2069946418168,0.9166794231168058,47.414768263488135,1.0014376128989764,111.6825618,84.0332128,267.5154894
4137.038,28.508023400000003,178.02081619999998,-105.2650728,-0.1568674,0.5388326,0.8044614000000001,34.01297459999999,-1.629698200000001,-100.274138,-36.89411,-3.1814526,21.6449414,-0.9988782,0.0999587999999999,-0.1233476,142.5623502,78.0920546,165.12673639999997,208.7698588165409,0.9808700709551088,42.89289546705352,1.0114168530128615,108.5493756,79.7217528,265.4008744
4157.023,21.8144832,175.172107,-108.2920244,-0.2283888,0.4856132000000001,0.7878032000000001,34.452427,2.4832415999999986,-100.094043,-30.2216084,0.2586739999999999,21.9215612,-1.0391556000000002,0.100122,-0.1100228,140.3642484,77.84833060000001,163.498407,207.0949089107521,0.9532132531128176,37.33587245487337,1.0497493950535053,105.9118214,75.36508900000001,263.59245
4177.009,36.7562958,173.02000119999997,-108.6473238,-0.3081374,0.5000156,0.747622,35.20179460000001,6.563307199999999,-99.901886,-25.997371,4.4071008,21.3510778,-1.056106,0.104972,-0.0825082,138.6078702,77.5461456,162.235556,207.58416862826303,0.95073808822731,33.92866575028636,1.0645123799595944,103.4060756,70.9828384,262.137442
4196.994,41.1897208,172.974234,-108.6081162,-0.3898554,0.6049206,0.8119638,36.072085,10.6450234,-99.6463212,-22.2335084,8.8552678,21.5190004,-1.0095976,0.1046662,-0.106076,137.2625944,77.16249539999998,161.31463920000002,208.3564293032049,1.0849891141038974,32.184033957814975,1.0205363516916974,101.1905094,66.517472,260.96096040000003
4216.98,28.922880400000004,170.36184680000002,-112.186586,-0.4664872000000001,0.5728336,0.8072754,36.703096200000005,14.726652199999998,-99.425139,-17.6472868,14.8787754,21.490827000000003,-1.0508510000000002,0.1059438,-0.1078648,136.422351,76.6891052,160.8164518,206.02311019415947,1.0942770273097944,31.538236062738648,1.061671666777672,99.7192548,61.962453,260.24159080000004
4236.966,32.1653578,164.086917,-111.558316,-0.5739848000000001,0.5694722,0.7816468000000001,37.4059108,18.6986952,-99.2224992,-17.3034392,20.3161672,16.530096800000003,-1.0556908,0.1093592,-0.079206,136.23353260000002,76.1922744,160.9798278,201.0084188329503,1.1246016437628572,31.39107768242153,1.064291355910251,98.8276218,57.4935792,260.202327
4256.951,41.4146512,158.25356440000002,-111.7483872,-0.645984,0.574097,0.7454310000000001,38.2951296,22.5802312,-99.0384492,-19.745212,28.5645756,12.9960618,-1.0023524,0.122996,-0.0868066,136.612793,75.6136276,161.781427,198.1087227285153,1.1412931566543278,37.07702790735092,1.0135944630893166,98.3176634,53.0333964,260.8198762
4276.937,38.4497488,154.07262880000002,-110.3431458,-0.7069198,0.6619461999999999,0.8031548,39.165014,26.3757622,-98.8096024,-21.8769902,30.5749066,9.6989574,-1.0104908,0.1298136,-0.123723,137.20556960000002,75.0474822,162.848703,193.3710628640329,1.258159770494002,38.826503685712346,1.0262799853639355,98.0405556,48.67172000000001,261.6583054000001
4296.923,26.247615,147.23846439999997,-111.9326372,-0.7568733999999999,0.584344,0.7566094,39.7742622,30.0792392,-98.6460082,-22.1604642,27.0993708,7.366947599999999,-1.0640228,0.1204576,-0.1261912,137.7328126,74.5650756,163.8537598,186.80743551209383,1.21933303003401,35.77336981969297,1.0782294613277084,97.9585504,44.4858364,262.499768
4316.909,32.2941048,139.5636552,-105.92774219999998,-0.8245752000000002,0.6015432,0.7127052,40.5479598,33.596241,-98.4285536,-19.5145268,23.2560154,2.7440921999999994,-1.0181916,0.1265246,-0.1123212,138.31888440000003,74.2006286,164.8674836,178.1617512969816,1.24488038944644,30.482602423596585,1.0321524406235545,97.7709246,40.6043876,263.2960372
4336.894,36.8165246,134.984761,-101.6640734,-0.8229822,0.5938788,0.6805298,41.475505,36.9940002,-98.1245604,-15.3257674,20.7305274,0.5583749999999993,-1.0084247999999998,0.126464,-0.1592716,138.98537000000002,73.9090378,165.876941,172.95064615701818,1.2219298422144864,25.78654097240804,1.0287279344499205,97.509865,36.9150376,264.0015014
4356.88,31.7782128,132.8802964,-94.817891,-0.8368014,0.6609537999999999,0.7135572,42.4406792,40.2524192,-97.6304564,-9.4473466,2.1118896000000005,-2.656836400000001,-1.0567038,0.1040638,-0.1770664,139.1061342,73.946965,166.1936584,166.30532292684384,1.2830667895508168,10.038486694690825,1.0764779168259049,96.665455,33.6945458,263.8241148
4376.866,22.635903000000003,127.9268966,-90.9256242,-0.858535,0.5753144,0.6375642000000001,43.2828232,43.3877174,-97.0539718,1.7653207999999991,-16.5773858,-4.156918600000001,-1.0552384,0.0909826,-0.1421624,138.6097902,74.28655699999999,165.63862920000005,158.57220473491603,1.2143134332593049,17.181561329983378,1.068651515841848,95.326967,30.898839599999995,262.692601
4396.851,29.530420400000004,122.1714324,-81.9147248,-0.9019122000000002,0.5899270000000001,0.5754661999999999,44.411117,46.3190858,-96.2942322,16.5982294,-26.2215518,-7.2762352,-0.9752706,0.1164191999999999,-0.1361968,138.01906760000003,74.8004746,164.6830414,150.02642021566817,1.2217286233776634,31.874983869812805,0.9915925280493192,93.6079506,28.4813888,260.97727360000005
4416.837,31.645174,118.5770828,-76.62478639999999,-0.9137216,0.5683624,0.5376586,45.724584400000005,49.1085106,-95.3571624,24.0792746,-35.0709678,-9.2422808,-0.9670614,0.1413732,-0.1714154,137.2055422,75.45352940000001,163.3429658,144.6834458177367,1.2029130268619923,43.533940805731,0.9922587225141234,91.4809578,26.3450188,258.7001282
4436.823,30.766666800000003,115.5656036,-70.848983,-0.9464984,0.58748,0.5268002,47.2154366,51.7378472,-94.1997496,27.2115174,-46.2112592,-6.528682800000001,-0.9962664,0.151825,-0.168529,135.6047976,76.21826180000001,161.1301484,139.00206801896454,1.232278548998805,54.023798970112274,1.0217629833943682,88.389361,24.4804146,255.329898
4456.809,27.129078000000003,109.9056426,-67.19293680000001,-0.9865448,0.5246818,0.4540119999999999,48.7662926,54.2259362,-92.9017866,33.973415800000005,-50.5659498,-5.139853,-0.9970918,0.154525,-0.1374996,133.5024384,77.0044924,158.2728212,131.64394366721856,1.2061046927204453,61.13531180224256,1.0183202704711325,84.73614579999999,22.7785562,251.1746078
4476.794,32.4886004,102.5099152,-60.1173288,-1.0240006,0.5241346,0.4007906,50.5932228,56.4911766,-91.4436598,37.8824624,-45.4171026,-8.861776800000001,-0.951659,0.1597128,-0.1726312,131.7994324,77.7492876,155.7506502,123.19855961945892,1.218165593327065,59.8023850203264,0.9802879995074304,81.2062096,21.258111000000003,247.19431
4496.78,31.1961528,94.9539642,-54.8908692,-1.0373908,0.5254008,0.3788025999999999,52.4960456,58.5438536,-89.887686,33.254733,-43.8167684,-9.888076600000002,-0.9689664,0.1438944,-0.1953662,130.01733399999998,78.47780159999999,153.2448304,114.02834203980753,1.222995127681235,55.88882284292625,0.998884094769138,77.52128839999999,19.933948000000004,243.1325164
4516.766,27.535004800000003,86.42763520000001,-49.26531,-1.0454456,0.5265542,0.3570288,54.3992432,60.3672332,-88.2788864,32.626505,-44.4701506,-8.935368800000001,-1.0366972,0.0971324,-0.1569887999999999,127.88046419999998,79.2024842,150.39508659999998,103.22297895815836,1.2237995718770458,55.87417953306982,1.053005826642493,73.481221,18.835251000000003,238.673973
4536.751,25.1562058,76.53884359999999,-44.0542672,-1.0406226,0.49306,0.321779,56.2628458,61.9637862,-86.6866028,39.0141668,-44.89253,-16.556511399999998,-1.0224794,0.0765442,-0.115635,125.9276902,80.0338806,147.611621,91.8248753247518,1.1956359329125903,61.73785330441488,1.03184039037198,69.66484439999999,18.0700944,234.2982238
4556.737,27.5515858,68.3670106,-38.2047386,-1.0161014,0.4823929999999999,0.2965026,58.234585,63.33175339999999,-85.0562654,45.0199032,-37.9761146,-22.386008,-0.963423,0.0838314,-0.1361078,124.83321700000002,80.8428176,145.58283379999995,83.02252748483151,1.1632191768268436,63.00881143479671,0.976594549327304,66.59863200000001,17.511064200000003,230.6390992
4576.723,25.3501832,63.69108819999999,-33.427742,-0.984672,0.5151368,0.3320702,60.279291,64.529628,-83.31614379999999,42.9507198,-36.5732502,-22.969847,-0.986112,0.092323,-0.1248878,123.66938799999998,81.6373778,143.5290862,76.26664041107556,1.1598342502384895,60.9096119896796,0.9982671864094502,63.390097,17.1077498,226.84523
4596.708,17.2416512,60.3192026,-29.676897200000003,-0.9503014,0.5330266,0.3553822,62.269575,65.60258180000001,-81.4735474,44.72634420000001,-34.6704414,-20.743668000000003,-1.0349121999999995,0.0831442,-0.0848824,122.2587878,82.37328640000001,141.1955016,69.40028073301777,1.1460744370355531,60.27259024184984,1.0417107283369214,59.9892128,16.770704600000002,222.669049
4616.694,6.992759000000001,56.5259728,-25.6496094,-0.9254022,0.5209538,0.3709987999999999,64.1237002,66.5503448,-79.570784,47.462464,-33.68889,-26.4280716,-1.0154114,0.0851982,-0.068858,121.0045962,83.19063860000001,138.9705536,62.465884623456574,1.1249009747976575,63.92237297596298,1.0213033186557263,56.88089600000001,16.640293800000002,218.5413376
4636.68,-6.4857502,52.5067628,-21.7918854,-0.9174934,0.5034542,0.3485734,65.741295,67.3742874,-77.6469132,49.4513564,-25.932289200000003,-24.2442872,-0.9686564,0.12127,-0.1031676,120.3247714,83.8792326,137.28841559999998,57.21810346978479,1.1030701182285558,60.8745080866231,0.9816543117873624,54.58347640000001,16.5049452,214.93532880000004
4656.665,-21.4075328,46.8498718,-17.7291668,-0.9429546,0.4809749999999999,0.3042966,67.0348114,68.0758774,-75.7708404,43.1805,-21.168886,-20.4907626,-0.9795268,0.1460658,-0.1133497999999999,119.7425418,84.4654172,135.8324646,54.474914444005634,1.1014067137337231,52.27378565457599,0.9968230269250004,52.7077304,16.389539799999998,211.603305
4676.651,-31.733866,39.163097400000005,-13.447603,-0.9751536,0.4268329999999999,0.2289401999999999,67.95718380000001,68.6318374,-74.0878784,37.145008,-15.0913034,-15.250068199999998,-0.993871,0.1510958,-0.1129272,119.4521608,84.89674360000001,134.79205940000003,52.16919086696144,1.0888179685594832,42.895962953820806,1.0116135912088569,51.49497699999999,16.2649062,208.8799378
4696.637,-35.3230974,30.3313362,-8.7823846,-1.0029727999999998,0.3777544,0.157266,68.5543136,69.030336,-72.691156,30.4931024,-9.4280592,-13.904237199999995,-0.9882272,0.159296,-0.109077,119.737758,85.2386014,134.46538700000002,47.379757754442295,1.0832291627422148,34.81444249689278,1.0069091351084467,51.1834444,16.208265399999995,207.156543
4716.622,-33.811776200000004,20.727240400000003,-4.7413424,-1.025903,0.3494832,0.1057736,68.82544240000001,69.2839218,-71.6822586,22.6200226,-3.170528,-8.389233,-0.9841162,0.1619948,-0.1075764,120.4060226,85.4170896,134.682077,39.94164533606893,1.0889460624604876,24.333041333782838,1.0031449008824398,51.5805802,16.1331678,206.3643356
4736.608,-26.9858156,9.374259,-0.6856123999999999,-1.0495853999999998,0.3531418,0.104146,68.77571560000001,69.3788482,-71.16585239999999,12.5126546,-2.2320378,-6.8781786,-1.0211592,0.1138777999999999,-0.0662964,120.921138,85.5762144,134.9478606,28.575882134403447,1.1122881965194091,14.45191540014776,1.0296258921231731,52.14542240000001,16.197366199999998,206.113713
4756.594,-18.7475778,-3.2720834,3.0605922,-1.053022,0.3564079999999999,0.1393932,68.3120438,69.3011732,-71.2629334,8.6241162,-3.4740702,-6.4904308,-1.0514582,0.0541296,-0.0169352,121.0378358,85.758641,134.8919798,19.275513683383625,1.120407273786742,11.3388816007232,1.0529867809913094,52.725792,16.457467799999996,206.1549132
4776.579,-12.8077218,-15.467300599999998,7.2321348,-1.0398052,0.3654232,0.1943195999999999,67.41665359999999,69.0359892,-71.93542500000001,12.339351400000002,-7.2464208,-8.838187000000001,-1.0516064,0.0221092,0.0237053999999999,120.4657686,86.0386856,134.0717924,21.34429430368516,1.1191465837813384,16.8191485168044,1.052105880239608,53.04911499999999,17.002696399999998,206.0072174
4796.565,-11.079455,-26.8620836,11.2458842,-1.0276386,0.3744775999999999,0.2470064,66.08416,68.5880842,-73.10132159999999,17.8072204,-11.9730974,-11.8593926,-1.0262418,0.017245,0.0416378,118.8652802,86.4255586,132.11238859999995,31.157595701052152,1.1212879767270671,24.517286810840176,1.0272309031961022,52.7811202,17.837474399999998,205.2137102
4816.551,-9.6680382,-38.5358588,16.0640434,-1.0231208,0.3980568,0.296661,64.3995164,67.93074620000002,-74.66651619999999,21.840842,-15.073270400000002,-12.9742156,-0.9989268,0.0188706,0.0448458,116.1595246,86.8573808,128.9663666,42.85483480830699,1.1372040873738891,29.539061092996228,1.000110992380466,51.7600082,18.926634599999996,203.6328828
4836.536,-9.0672952,-50.491848000000005,21.6718472,-1.0210288000000003,0.4115768,0.3372962,62.43387299999999,67.041853,-76.54186399999999,23.8771998,-14.8980446,-11.9753038,-0.9816838,0.038894,0.0036769999999999,113.2291976,87.2540178,125.5548798,55.68942016001958,1.1513748300454203,30.5856225095224,0.9824608627051972,50.7953246,20.2121648,202.0967438
4856.522,-11.7203966,-62.1615006,27.6468466,-1.0204262,0.4438468,0.384126,60.2399048,65.9001462,-78.6096772,22.944301000000003,-12.2455338,-9.0616244,-0.9790588,0.0898422,-0.0472752,110.52749,87.5528734,122.3916978,69.03454193538929,1.1772095800632445,27.54100730169866,0.9843082338847522,50.2875852,21.652727199999998,201.001375
4876.508,-15.8127452,-74.7478402,32.823476600000006,-1.0286622,0.4693618,0.4256926,57.831131600000006,64.501444,-80.8439682,16.710704600000003,-7.347171600000001,-5.0247126,-0.9817042,0.143361,-0.0913516,108.8435926,87.7180956,120.3722474,83.15445352737042,1.2081641489064472,18.93347077164952,0.9963135186482216,51.012461,23.2166516,201.2162156
4896.512,-17.0711298,-88.85462580000001,38.760135,-1.045408,0.4890754,0.4817992,55.3065458,62.8066656,-83.2077118,6.3936762,0.0121651999999997,0.2843567999999997,-0.9850716,0.1768918,-0.1246489999999999,108.8616286,87.7051804,120.2627944,98.43229177421756,1.250681055453308,6.400007979076566,1.0085604291438368,53.5550828,24.8985148,203.4705062
4916.479,-20.9293102,-103.1558776,44.9228058,-1.0549002,0.5106764,0.5220589999999999,52.709126000000005,60.79949939999999,-85.61563579999999,-5.014775200000001,8.0153894,6.2605944,-0.9939902,0.198218,-0.1480573999999999,110.6930008,87.4867998,122.1968322,114.44312818958822,1.283023934678539,11.33973014588437,1.0243182547015357,57.98387479999999,26.687300400000005,207.812468
4936.465,-26.9268466,-116.8069764,50.5061782,-1.05116,0.5315228,0.564338,50.0799398,58.4877838,-87.9854692,-14.7286768,14.7844086,11.7809188,-1.0003556000000002,0.195453,-0.150283,113.6437318,87.0893388,125.4464324,130.07612709448358,1.306113016076266,23.96461361471963,1.0302903385693571,63.56379199999999,28.601555,213.4319016
4956.451,-30.1719044,-130.31116179999998,56.4959426,-1.0401272,0.5509245999999999,0.6164538,47.52616400000001,55.85918499999999,-90.2615724,-22.5408242,20.2696338,14.955907,-1.0035948,0.1663582,-0.1250986,117.207477,86.5720276,129.46736900000002,145.20032450050175,1.328682729096544,33.80275083767676,1.0249523076788694,69.681313,30.7128426,219.7289414
4976.436,-32.28028,-143.1973526,62.7035782,-1.0189554,0.5690686,0.659374,45.13252859999999,52.9222832,-92.368741,-28.5309376,24.258709,16.4126932,-0.9946448,0.124456,-0.1164501999999999,120.8028826,85.9750014,133.641696,159.622169474076,1.3404787393208146,40.88857861015837,1.0091423205787575,75.670354,33.0527182,226.010437
4996.422,-40.2211496,-154.3266418,68.06219639999999,-0.9887066,0.5963141999999999,0.6847744,42.827906,49.7159272,-94.2578722,-31.2794086,26.4140984,17.9888754,-0.9906632000000002,0.1047541999999999,-0.116074,123.8395952,85.31708979999999,137.31370239999998,173.39814250217117,1.342403570056546,44.71806832598386,1.0029258156652865,81.0116892,35.6011626,231.5715746
5016.408,-46.2587992,-164.6387848,72.23136919999999,-0.9593626,0.6043206,0.71921,40.6303024,46.2712854,-95.9402102,-32.8522342,27.0169494,17.9188458,-0.9897402,0.095743,-0.1201344,126.29191139999998,84.6604368,140.4332458,185.6426046476221,1.342699895718742,46.15484678360429,1.0015910640617756,85.661609,38.3891514,236.373456
5036.393,-49.7261836,-174.42718799999997,76.4936068,-0.926109,0.6030106,0.7548741999999999,38.5816528,42.5996012,-97.4174212,-36.132984,26.5412646,17.2536622,-0.9942976,0.1036386,-0.108405,127.97203519999998,84.0230452,142.8467956,196.8471720149448,1.3383328141456443,48.03873560600006,1.0055447880630282,89.3903824,41.423444,240.26421680000004
5056.379,-52.3340692,-183.3696472,79.909897,-0.8825192,0.5997604000000001,0.775426,36.680400000000006,38.7306212,-98.7063722,-41.096699400000006,26.2781168,16.6028074,-0.9911822,0.1152922,-0.1152975999999999,129.13430019999998,83.3939268,144.84255679999998,206.7580081927504,1.3190292480657129,51.52796655884936,1.0045038484463065,92.4539002,44.66330560000001,243.548929
5076.365,-56.3603814,-191.1102722,82.0996126,-0.838156,0.604481,0.7884241999999999,34.877554200000006,34.7025648,-99.829413,-45.3791542,26.2994134,15.9766186,-0.9925158,0.1209174,-0.1197128,129.93027039999998,82.7739852,146.55891420000003,215.499362228712,1.2998136323498997,54.82863415206824,1.0069954246947896,95.0527162,48.07142040000001,246.3883272
5096.351,-57.242778,-198.3327424,83.0193438,-0.7947417999999999,0.5811434,0.8036018,33.188082800000004,30.520993999999995,-100.8309144,-50.1914948,27.042555799999995,14.7913282,-0.9918876,0.1074155999999999,-0.1196978,130.6497772,82.17334439999999,148.2970032,222.49679500173625,1.2708729413257802,58.90050393990407,1.004841622088755,97.4616944,51.6523504,249.1279176
5116.336,-54.0939536,-205.1881318,83.8709322,-0.7453318,0.5504492,0.8249489999999999,31.6811374,26.1868906,-101.720726,-50.8998452,28.5522426,13.8888244,-0.9953328,0.0951912,-0.1186065999999999,131.4409028,81.576535,150.1235322,228.17243154191556,1.2405864203967734,59.99103468091923,1.006884438690379,99.7597654,55.3896444,251.8442582
5136.322,-52.2832366,-211.0417146,84.2201388,-0.6923644,0.5394684,0.8392392,30.3117972,21.7235514,-102.5162766,-48.180528,30.351001399999998,12.7713574,-0.9960062,0.0918385999999999,-0.1141235999999999,132.3781222,80.97870479999999,152.04558120000002,233.16340602712657,1.214379286632706,58.35798260889525,1.0067208525531597,102.066325,59.2551534,254.5618578
5156.308,-54.0615334,-215.600708,82.98479019999999,-0.6442426,0.5171066,0.8386068,28.9865276,17.169717,-103.2473802,-44.3064626,32.0112084,11.565336,-0.9976004,0.0855332,-0.0999804,133.4275392,80.38567499999999,154.00680240000003,237.26101678994507,1.1771614708376077,55.8707176269137,1.0062398157330883,104.4410116,63.215958,257.2541826
5176.293,-53.40627979999999,-219.6357574,81.0358658,-0.5908097999999999,0.4686243999999999,0.8492338,27.736336,12.535506199999997,-103.9329622,-39.9699124,34.073654999999995,9.8307842,-0.998737,0.0764034,-0.0878292,134.6538514,79.79678179999999,156.0638124,240.12269404765385,1.1357213985453651,53.43455979335536,1.0054984053061446,106.9175154,67.2612756,259.99677460000004
5196.279,-45.1084656,-223.1890624,79.2875228,-0.520937,0.4284274,0.8507464,26.7157716,7.8418325999999965,-104.5772996,-33.7593022,36.189203,8.388873800000002,-1.0002024,0.0768204,-0.088534,136.069571,79.1955062,158.1912782,241.11126584118375,1.0856771307127733,50.196833589764005,1.0070474090021382,109.3537994,71.35367360000001,262.76857779999995
5216.265,-42.7562256,-224.2983002,77.20739739999999,-0.4459182,0.4322928,0.8351498000000002,25.799389,3.136969799999997,-105.1831772,-28.1334412,37.409282,7.0654572,-1.0092022,0.086655,-0.0887476,137.5657928,78.5891296,160.290918,241.03693599415203,1.040766685892242,47.337781728281406,1.0167960985446394,111.7664038,75.45215979999999,265.4740952
5236.25,-43.384970800000005,-224.248349,73.185829,-0.3639824,0.3889832,0.8149666,24.9222928,-1.5414066000000026,-105.7845566,-23.8779578,38.0783616,5.193576800000001,-1.0171310000000002,0.0730367999999999,-0.0877146,139.1647124,77.99471120000001,162.41179499999998,239.84524862285664,0.9736332351083544,45.24479783153456,1.0235153620578443,114.2424196,79.5361178,268.1963516
5256.236,-37.1651686,-223.6120606,69.99430459999999,-0.2746236,0.3484498,0.8002162,24.218573400000004,-6.189373600000003,-106.3755798,-17.571418400000002,38.5768472,3.919015,-1.0140090000000002,0.0733086,-0.088965,140.8296142,77.4034256,164.47579960000002,237.23997571927475,0.9149761480713254,42.570959151165845,1.0205406283632026,116.6110408,83.5927992,270.8513794
5276.222,-28.192297000000003,-221.6879212,67.19417419999999,-0.185415,0.3312614,0.7745132,23.7405194,-10.785019600000002,-106.9595884,-10.4834198,38.5718424,3.3207538000000008,-1.01654,0.0849892,-0.0953624,142.4707762,76.806372,166.376297,233.3568020489944,0.8625448013461098,40.10880854168675,1.0245343932979507,118.7302568,87.5913916,273.3358854
5296.207,-25.1350666,-217.9975678,63.97739800000001,-0.1065651999999999,0.3335932,0.744538,23.3716574,-15.291323600000004,-107.5484556,-5.284414,35.8292078,2.893401400000001,-1.0197813999999998,0.0890957999999999,-0.1055836,143.9573698,76.2490644,168.0151488,228.57781737201103,0.8227863625396814,36.332202445771145,1.0290967213787827,120.5857124,91.540388,275.5636044
5316.193,-22.5985356,-213.8526488,60.1479156,-0.0258587999999999,0.2930474,0.7308476,23.1055304,-19.694183400000004,-108.1627226,0.996347,30.4773856,2.9607840000000007,-1.0276228,0.0819042,-0.1082139999999999,145.23109720000002,75.77430240000001,169.306897,223.29671059168183,0.7878347990600314,30.637068760737417,1.036545795830305,122.1255668,95.4684858,277.4696196
5336.179,-15.600239000000002,-209.1811004,57.3635888,0.0484236,0.2837602,0.702851,23.0348316,-23.986566000000003,-108.79684419999998,8.809313,21.015836,2.1733190000000007,-1.0297262,0.0921882,-0.1257731999999999,146.22564359999998,75.4581602,170.15133360000002,217.46420749499788,0.7595157828129709,22.89088626040123,1.041467046537681,123.190812,99.4447262,278.94817780000005
5356.164,-9.3954222,-203.9675324,54.00306859999999,0.1187965999999999,0.2617012,0.6562608,23.1501676,-28.1547456,-109.4765088,15.785118399999998,9.899060799999996,1.2134528000000009,-1.0418898,0.10122,-0.1425872,146.9030942,75.3278852,170.525418,211.2045445767624,0.7164344965659037,18.671738947455932,1.0564615247835012,123.7529266,103.4826308,280.0019268
5376.15,-6.363533200000001,-197.5490022,50.8174782,0.1872018,0.2575598,0.6200678,23.4007516,-32.1755984,-110.2113402,22.1727828,-8.459170600000004,-0.5549531999999996,-1.0626222,0.0938382,-0.1532772,147.0319974,75.5227628,170.20070479999998,204.0796876605082,0.6970406308789466,23.73810938954639,1.077713063738173,123.6312458,107.6983612,280.41204500000003
5396.136,-4.6697412,-190.0939332,46.8475998,0.264567,0.2270986,0.5951098,23.7658318,-36.0225412,-111.0172744,29.5255608,-24.6563912,-3.1898059999999995,-1.0638982,0.084072,-0.1544428,146.75716839999998,76.0162474,169.30793139999997,195.83719649071264,0.6897283129370579,38.598850110846186,1.078332072980805,122.9913366,112.0387886,280.3252058
5416.122,0.1012134000000001,-181.7124056,43.320820600000005,0.3357592,0.2212816,0.545476,24.313752,-39.677581800000006,-111.8954818,34.4388568,-37.805041200000005,-7.388160999999999,-1.052609,0.0948485999999999,-0.16578,146.19364000000002,76.764798,168.0195402,186.80498411591867,0.6776753304195158,51.67050339203717,1.0697966966685584,121.879888,116.4423798,279.915022
5436.107,2.6417040000000003,-172.395984,39.3949592,0.3985109999999999,0.2077408,0.5040082,25.0081078,-43.126908,-112.8602524,35.693445399999995,-45.4806162,-8.927318799999998,-1.0564763999999998,0.0978656,-0.1639354,145.2757294,77.6475266,166.34558399999997,176.85959603516437,0.6752714437712289,58.499619788604754,1.0735897143664703,120.26762159999998,120.7744346,279.20583640000007
5456.093,3.1014926000000003,-162.3080292,35.680004399999994,0.4586162,0.2091264,0.4685044,25.817681400000005,-46.3612806,-113.9155702,36.2864202,-50.2864018,-8.807136799999999,-1.0624808,0.0908554,-0.160442,143.9555146,78.5971634,164.2520446,166.21244933253325,0.6881562634305961,62.63379403753157,1.0783606954269984,118.1378332,124.958444,278.1676148
5476.079,2.6138218,-151.4329162,31.7741526,0.5199798,0.2026576,0.4055305999999999,26.7221664,-49.3631566,-115.0627762,37.7008542,-46.7405386,-7.129785199999999,-1.0450996,0.091485,-0.158968,142.485895,79.44855820000001,161.98413999999997,154.7525668500735,0.6898580743762879,60.47202818680622,1.0610718656948546,115.7637286,128.8117148,277.04691620000006
5496.064,1.2524082,-139.0107162,28.6931712,0.5799456,0.2057471999999999,0.3466468,27.6779122,-52.1116408,-116.2612762,37.1872106,-41.840708,-4.9549612,-1.0324942,0.1103734,-0.1595098,140.8555574,80.1685502,159.5703216,141.94663017574203,0.7062809732800678,56.19684260386451,1.050556965022478,113.1776452,132.280191,275.83159779999994
5516.05,1.3125224000000002,-125.1518356,25.5426994,0.6498806,0.1814312,0.2856174,28.6720776,-54.5793662,-117.4702484,35.5610518,-35.066241000000005,-2.075204199999999,-1.0346278,0.1221662,-0.1558894,139.1807832,80.7276658,157.1489838,127.73853827932544,0.7326932330604398,49.98535921111363,1.053413864531714,110.5087056,135.307032,274.61923220000006
5536.036,5.5974912,-109.528621,23.5071166,0.716696,0.1765258,0.2286724,29.7230006,-56.743267,-118.6113144,32.7207782,-28.883959200000003,-0.4665145999999992,-1.0168768,0.1235784,-0.1638754,137.6011964,81.1552078,154.88440559999998,112.16253945387344,0.772726071129608,43.64802470848908,1.0373838219530704,107.8781958,137.89847479999997,273.49572
5556.021,7.5930374,-91.2104454,21.8820704,0.7678864,0.1909714,0.1772621999999999,30.6948116,-58.5563134,-119.5864638,32.0640178,-21.5961896,0.3217742000000008,-0.997964,0.129288,-0.182274,136.43008419999998,81.4471268,153.04841019999998,94.1053907702143,0.8108893182622151,38.66005925181247,1.0226785141558417,105.7352726,140.0034402,272.634874
5576.007,8.8551412,-71.149675,19.6925456,0.8047966000000001,0.1841896,0.1568986,31.4960484,-59.9896478,-120.320346,31.8273708,-12.9875838,-1.3554767999999993,-0.9941078,0.1350606,-0.1939136,136.139102,81.62110440000001,152.10796520000002,74.35379028997541,0.8403811913659659,34.4019793377947,1.0218092620240629,104.6430536,141.6107522,272.4283112
5595.993,14.862001800000002,-51.1003074,17.346055,0.8259978,0.17096,0.1419822,32.183120200000005,-61.0457832,-120.7753784,33.723868,-2.592200400000003,-0.7180475999999991,-1.0068252,0.1289014,-0.19979,136.728485,81.63168340000001,152.0198244,55.973262705873445,0.8553704649575411,33.83096759111465,1.034518534573934,104.54536480000002,142.67746660000003,272.7952028
5615.979,20.459951,-30.709863199999997,14.7439514,0.8206505999999999,0.1919936,0.1481124,32.7221416,-61.7336364,-120.9251618,36.2398966,8.967216199999996,0.7895530000000008,-0.9741822,0.1253782,-0.2095212,138.1795624,81.43832540000001,152.752945,39.73775780753963,0.8557255592507914,37.34118993679824,1.0043155804235635,105.4574208,143.17196180000002,273.6781068
5635.964,20.2179032,-10.1501688,10.9665734,0.8044632,0.2037744,0.1581872,33.003791,-62.046224200000005,-120.780661,39.5051726,23.0823068,2.809915600000001,-0.957924,0.1340922,-0.2129106,140.5087798,80.9867828,154.31109320000002,25.14070938956678,0.8448125451799589,45.840453477733405,0.9904191190951436,107.5049888,143.033007,275.0917542
5655.95,21.7145214,9.2569044,6.3937268,0.7889932,0.1850546,0.1913522,33.069754,-61.9957,-120.3575822,38.7056412,35.690459999999995,3.8960544000000006,-0.9345946,0.1363876,-0.2142746,143.44125060000002,80.3067368,156.4997772,24.45588806596145,0.8326891010888997,52.79313246628292,0.968494836324944,110.3714966,142.30243679999998,276.8573594
5675.936,25.6763252,27.0148442,1.6383164,0.7747876,0.1800764,0.2174302,33.01629319999999,-61.6055472,-119.7066408,36.1735588,44.3070268,5.870450000000001,-0.919363,0.1315344,-0.2154154,146.40265820000002,79.4519898,158.7747528,37.30629388659423,0.8246206563158359,57.4987057533948,0.9533799970156288,113.386365,141.057537,278.4813936
5695.921,27.4215954,44.151231,-3.2153816,0.7568344,0.1905064,0.2391796,32.831385,-60.88582600000001,-118.8606524,32.4017266,45.910893,6.226462800000001,-0.8887979999999999,0.1208074,-0.2178018,149.1261414,78.5605346,160.887152,52.07315788321542,0.8162707139916757,56.53716319128844,0.9230351763513672,116.2947564,139.4463606,279.74780440000006
5715.907,26.491510000000005,60.6617436,-7.894490999999999,0.7458736,0.1837978,0.2572238,32.4809944,-59.8422516,-117.8399218,26.3045958,41.822492,6.478348600000001,-0.889553,0.1075334,-0.2179402,151.2947266,77.7429612,162.5604278,66.66310993961595,0.8101068705721733,49.82992672957249,0.9221528629791268,118.8137322,137.5852128,280.4003496
5735.893,27.581171800000003,76.2728196,-12.5383082,0.7340562,0.1730294,0.2719066,32.0440296,-58.478802400000006,-116.6846698,19.2101654,32.2515714,5.254524600000001,-0.8743488000000001,0.1032866,-0.215234,152.7739686,77.1047242,163.6782592,82.06992884189341,0.8016925078522065,37.90520203397761,0.906355129381966,120.729939,135.5835266,280.362929
5755.878,27.803614600000003,90.759285,-17.659675,0.7203771999999999,0.1806514,0.2896832,31.5812568,-56.80364899999999,-115.4752382,11.8461218,20.012960799999995,4.077856000000001,-0.8747274,0.099964,-0.210929,153.55186780000002,76.69563760000001,164.23141779999995,96.5512968304527,0.79717914860089,23.610974381408056,0.9053352244598464,121.970611,133.4992866,279.706656
5775.864,25.6575238,104.8727402,-23.5940626,0.7048776,0.1926182,0.2981038,31.0971058,-54.8206458,-114.265947,4.334916399999999,6.964584399999998,2.5751236000000004,-0.8587776,0.1057906,-0.2108952,153.7101258,76.527469,164.3050202,110.51370935126998,0.7891895067266417,8.598150825322223,0.8905994625493325,122.61302,131.3481148,278.57096720000004
5795.85,22.4359646,118.8521332,-30.3919072,0.6819072,0.2022059999999999,0.3084006,30.6089886,-52.524211,-113.0995528,-2.6339882,-2.0028742000000017,0.1166124000000008,-0.8487195999999999,0.1200858,-0.215132,153.5358338,76.5353334,164.1818116,124.7111466428579,0.7752390766261721,3.311041731932512,0.8837575098463377,122.9268452,129.0595444,277.2813644
5815.835,22.6477514,131.753279,-37.9425602,0.6514882,0.1965068,0.3184694,30.2209984,-49.9124824,-112.0195936,-8.2956282,-7.103372200000001,-3.6746141999999993,-0.8364011999999998,0.130615,-0.2230253999999999,153.32981260000005,76.65915539999999,164.14289560000003,138.96576932920806,0.7513152174166579,11.522939441097906,0.8754242255224605,123.1088142,126.5716378,276.16248920000004
5835.821,24.5171224,142.7943984,-45.1499698,0.6168336,0.2158904,0.3692856,29.97353,-47.02276680000001,-111.0363812,-12.6107152,-9.3117548,-6.4639726,-0.8427176,0.1314534,-0.2292936,153.17831719999998,76.84405840000001,164.2478028,151.75588712842548,0.750642530948307,16.9564694758191,0.8831922241065531,123.20478719999998,123.8668252,275.284184
5855.807,23.5081754,152.4975248,-52.2295982,0.5768978,0.2449804,0.39464,29.8282094,-43.8874024,-110.1655638,-15.7382946,-9.312692000000002,-8.843160199999998,-0.8405756,0.1325028,-0.2373299999999999,153.1574126,77.0433458,164.5503602,162.89892666588452,0.7406532235999517,20.31309015206985,0.8834307331212787,123.3292032,120.9307482,274.715924
5875.792,24.5386752,161.17387680000002,-58.7525322,0.527729,0.2322482,0.4206536,29.7820892,-40.5284836,-109.3729446,-18.6303224,-7.931315400000003,-10.5241768,-0.8450827999999999,0.1258762,-0.2418689999999999,153.289514,77.2310304,165.06789859999998,173.29461960264294,0.7137132302523193,22.82001257711917,0.8879810638427375,123.5074248,117.759514,274.4408432
5895.778,34.6966662,168.0918548,-63.4855476,0.4692158,0.2421196,0.4713882,29.997831,-36.9894742,-108.6238862,-23.9506818,-7.075379600000001,-11.2042758,-0.8485312,0.1169907999999999,-0.2382976,153.46219779999998,77.4655656,165.8615388,183.00039630987243,0.7078080267791825,27.372101698105197,0.8890881794421969,123.4643668,114.4550398,274.485425
5915.764,37.329484,172.7043794,-67.665358,0.4071784,0.3000832,0.5547974,30.332914,-33.322279800000004,-107.920862,-29.6342542,-7.881067000000002,-9.5201844,-0.8761481999999999,0.1165396,-0.2234547999999999,153.33552840000002,77.70903619999999,166.4656892,189.20595580719325,0.7507624999928806,32.10816329313637,0.9116738421027776,123.0026144,111.031316,274.38655120000004
5935.75,34.1486718,175.4631592,-73.15947419999999,0.3424169999999999,0.3270503999999999,0.5857304000000001,30.6858504,-29.5491822,-107.3022418,-33.80395660000001,-9.04498,-5.6589398,-0.902679,0.1235946,-0.2070206,152.7173736,77.944673,166.6538698,193.14699243676856,0.7531875380762217,35.44774667979769,0.9343246389850371,122.0315232,107.4938552,273.9561116
5955.735,37.511684,177.0309358,-77.9396958,0.2682276,0.3313264,0.6387615999999999,31.1591652,-25.7022682,-106.7438998,-37.6389884,-10.7767236,-0.676837399999999,-0.9298514,0.1227546,-0.1887945999999999,151.508606,78.172296,166.317328,197.0321670391312,0.7679450568714404,39.157238515913896,0.9567317904680916,120.3494408,103.87456419999998,273.0612278
5975.721,41.684954,177.355475,-81.2360092,0.1898246,0.4007262000000001,0.7003762,31.771418,-21.816999200000005,-106.2254336,-40.2970642,-11.785413200000002,6.843062200000001,-0.9530184,0.1222264,-0.1668358,149.5521576,78.3489516,165.2720002,199.4790442457559,0.8289400989565169,42.53912137911084,0.9752012857647184,117.7807396,100.1659508,271.4974338
5995.707,31.7109372,175.8644104,-86.2801102,0.1197272,0.438382,0.7611666,32.248381,-17.9088734,-105.79214960000002,-37.4255832,-12.3180392,14.247028200000004,-0.9846626,0.1175678,-0.1429192,146.9642548,78.4084244,163.3969606,198.4392395660851,0.8865032280253693,41.89732903329823,1.001902450922364,114.71587379999998,96.3172978,269.1891102
6015.692,29.679836800000004,173.1536224,-90.5986894,0.0508356,0.447161,0.7577852,32.7384434,-14.009289000000004,-105.4444186,-32.0217758,-11.5031346,19.5152794,-0.9992606,0.1075094,-0.1334865999999999,144.13289500000002,78.3892488,161.16175859999998,197.6643422160762,0.8813487547432061,39.22451224771632,1.0138533869254864,111.3944516,92.3985378,266.6061772
6035.678,35.590284600000004,171.08420399999997,-93.1055056,-0.0291256,0.48299,0.7948172,33.3785028,-10.126367800000002,-105.1304796,-27.8423042,-9.2922896,24.1301732,-1.00483,0.0975147999999999,-0.1221322,141.2208222,78.26937439999999,158.75726319999998,198.00279894298015,0.9305170724340311,37.99744475405687,1.0169113724390535,107.8423194,88.3957422,263.8877428
6055.664,33.0632472,168.8910522,-94.6628556,-0.1064309999999999,0.5404742,0.8288932000000001,33.9919266,-6.266567200000003,-104.8274004,-22.9278554,-6.089863400000001,27.5730632,-1.0082718,0.0864236,-0.113654,138.44561159999998,78.044008,156.3898194,196.4139049532336,0.9952406018812135,36.37371033734617,1.01833113132625,104.453685,84.3105752,261.21721979999995
6075.65,26.602407600000003,165.0424346,-97.591925,-0.1749876,0.530876,0.8206472,34.502797,-2.4406738000000034,-104.5834078,-18.7932538,-2.3287920000000013,25.058479,-1.0248632,0.0888554,-0.1010682,136.21481640000002,77.7887528,154.4938112,193.57395778879308,0.992930921261696,31.409187037615595,1.033660796332453,101.7120194,80.22942660000001,259.077219
6095.635,34.39415820000001,161.257315,-97.9695144,-0.248964,0.5487893999999999,0.7997694,35.186818800000005,1.3245395999999972,-104.3506516,-15.727324,4.341992199999998,21.177864,-1.0208724000000002,0.0980452,-0.095789,134.7662446,77.481041,153.3356142,191.79391416587663,1.0013910185460622,26.73393985308437,1.0300334221984258,99.5794258,76.1565014,257.6862658
6115.621,40.28181,159.1952422,-97.78223699999998,-0.3106722,0.6079095999999999,0.8364054,36.0139168,5.059043799999997,-104.0866516,-13.935708,10.905089199999995,17.9357426,-1.011705,0.1123442,-0.0879136,133.982773,77.1195266,152.8229006,191.12068236775664,1.0796505410428692,25.195551006768543,1.021712791034545,97.9688562,72.0604828,256.9095522
6135.607,30.8323634,155.942981,-99.0133802,-0.3616411999999999,0.6225156,0.8470438,36.660981,8.765446799999998,-103.8317734,-12.1277678,15.136643599999996,12.947643000000005,-1.0149612,0.1225158,-0.0929436,133.8288972,76.763835,152.9184786,187.2765265980384,1.111662371810452,23.32042432160244,1.026545114223452,97.1679162,67.99838820000001,256.750252
6155.592,26.2598408,150.4803498,-100.1877746,-0.4273034,0.6054412,0.7936094,37.2224466,12.396031999999996,-103.6236908,-10.6683472,23.3188312,9.5890108,-1.0128800000000002,0.1578758,-0.0940593999999999,134.31956480000002,76.331218,153.650171,182.67869359635816,1.0858006824815318,27.37755738988337,1.0294162585436468,97.0971182,63.935186,257.2738618
6175.578,33.482505200000006,145.8900788,-99.5336456,-0.4855824,0.6103422000000001,0.7816796,37.93649839999999,15.946051999999998,-103.4197676,-10.3876492,29.523379,6.317468200000001,-1.0233418,0.176306,-0.1159024,135.3038422,75.844449,154.8867126,179.75522204699544,1.1042331571487791,31.928726375129852,1.0448663127831237,97.3673438,59.898397,258.3064802
6195.564,34.072532800000005,142.5749178,-97.5581512,-0.5268706,0.6674136,0.8219763999999999,38.695865600000005,19.4167802,-103.1709656,-14.6845212,28.734009,3.5927870000000004,-1.0411508,0.1680801999999999,-0.1397666,136.2963348,75.40076300000001,156.21995520000002,176.08559720387666,1.1826574925845097,32.4682391655707,1.0638517962800271,97.6004692,55.9839828,259.3909208
6215.549,22.027943400000005,137.04686299999997,-97.6095826,-0.5816304000000001,0.6241648,0.799448,39.2062774,22.7994828,-102.9567718,-16.0653782,28.0747854,1.6912414000000004,-1.0233348,0.1456954,-0.1548353999999999,137.3197662,74.98560339999999,157.61287499999997,169.69002199281073,1.1691846408789333,32.390588902305595,1.045186712298506,98.1134888,52.1861206,260.5696468
6235.535,24.667528200000003,130.42785199999997,-93.4353562,-0.6627104000000001,0.6198276,0.7263638,39.7951148,26.0119374,-102.7237686,-11.498534400000002,27.866017,1.4914498000000007,-1.006444,0.1560629999999999,-0.1772938,138.3986848,74.5626512,158.9696164,162.32706894739573,1.1623148015664089,30.18204133749393,1.0337883132553976,98.60357,48.5507138,261.69338500000003
6255.521,29.9259674,126.18400119999998,-88.7457854,-0.6957554000000001,0.6319748000000001,0.7159718,40.537374,29.1050576,-102.419931,-6.6006134,18.515149,-1.0054931999999994,-1.0375932,0.1473269999999999,-0.2099644,139.2587312,74.30897379999999,159.99555020000005,157.1425471027192,1.1815597076997169,19.682221834023384,1.0688264325336456,98.7213572,45.2039162,262.41548120000004
6275.506,24.3555388,123.641768,-83.617569,-0.7113160000000001,0.6843663999999999,0.7718938000000001,41.242765000000006,32.081102,-102.003981,-1.366349,4.987524599999999,-1.2719931999999994,-1.0322128,0.1325964,-0.1713431999999999,139.59349980000002,74.2615662,160.36743140000002,151.23616270546503,1.2530554097019813,5.325436876562559,1.054705438481778,98.3507348,42.1804642,262.3714124
6295.492,11.388020200000003,118.2040192,-81.73405620000001,-0.7338498,0.6128724000000001,0.7001846,41.6991174,34.950554999999994,-101.594902,4.293834,0.2961471999999979,-1.5630675999999997,-0.9725108,0.1814982,-0.1589262,139.8113618,74.27938400000001,160.50225519999998,144.1607890586561,1.185076614282368,4.57907129293633,1.001986222343561,98.1122444,39.328829,262.0971572
6315.478,15.020336800000004,112.7330764,-75.47713480000002,-0.7872748,0.6158750000000001,0.6358552000000001,42.2984384,37.649379,-101.1088654,5.288817,-7.0157994000000015,-3.825555,-0.9824652,0.2092159999999999,-0.1811529999999999,139.82479859999998,74.428667,160.404483,136.49598862168455,1.1846583734170286,9.58268738603918,1.0206985908073156,97.52636019999998,36.779288,261.51334840000004
6335.464,16.9717638,110.1307846,-70.72796100000001,-0.7840328000000001,0.5991376,0.6216794,43.0280518,40.251487,-100.5146012,0.4299666000000002,-19.8781716,-5.734748,-1.0252064,0.1891552,-0.1869125999999999,139.2509582,74.80500959999999,159.79681999999997,131.9821008709594,1.166258363997429,20.69333013460294,1.059133689543846,96.2229064,34.5535226,260.31142120000004
6355.449,15.235248200000004,109.5814468,-66.038804,-0.7864632,0.5989692,0.6291682,43.848085000000005,42.7608666,-99.761969,-0.9397815999999996,-30.0560694,-8.751540799999999,-1.005062,0.1625704,-0.1491309999999999,138.2400116,75.3867218,158.76788340000002,128.84614819329002,1.171811030582201,31.31836463813811,1.0289892195553656,94.3919266,32.625855200000004,258.52985240000004
6375.435,10.881023600000002,106.8640778,-63.3427994,-0.8192964,0.5585850000000001,0.5693968,44.6627174,45.1899354,-98.9177888,3.3535472000000004,-31.6805422,-10.958604,-0.9479856,0.1608326,-0.191515,137.29129640000002,76.009555,157.716031,124.70219739225467,1.1434493907157417,33.689672520483555,0.9804192053683568,92.628579,30.8196196,256.6338198
6395.421,13.376284600000002,103.02677760000002,-58.5427566,-0.8776265999999999,0.5556124,0.5125944,45.6258788,47.49082119999999,-97.9612,7.732262800000001,-35.8331314,-12.698117399999996,-0.9719734,0.1245742,-0.2210684,136.27846979999998,76.71203599999998,156.5079072,119.2505607645805,1.158311964443379,38.79488857365249,1.0045507747703748,90.652591,29.2212148,254.4691072
6415.406,12.363763800000005,99.3488374,-54.5082992,-0.8998989999999999,0.5409368,0.4919575999999999,46.6640564,49.6783882,-96.8924942,13.724794400000002,-40.6634306,-10.913151,-1.0134774,0.1244362,-0.2035324,134.8661926,77.457208,154.7707216,113.9921437192518,1.1595055463399042,44.28297002496658,1.0411754155909367,88.2021362,27.7788198,251.6632158
6435.392,9.086761400000004,94.9191834,-51.060871000000006,-0.9293814,0.5298375999999999,0.476997,47.7096184,51.7382904,-95.7477828,21.0505776,-42.4718588,-13.7018666,-1.0126242,0.1174904,-0.154144,133.3462096,78.26645640000001,152.78324600000002,108.16391800106912,1.1713256622514163,49.34295041386312,1.0310054011758618,85.6365912,26.528166,248.5310288
6455.378,7.419932800000002,88.7947862,-47.8308982,-0.960058,0.5086128,0.435683,48.7758018,53.654354,-94.5555618,25.8776514,-39.339108200000005,-16.2223832,-0.9598064,0.1396972,-0.1621659999999999,132.05114120000002,79.044194,150.9332856,101.13043202557274,1.1705631209707743,49.8034536216001,0.983382654272893,83.2753394,25.38984,245.4888474
6475.364,9.434142400000002,83.2094972,-43.6428368,-0.9678814,0.4856024,0.3844278,49.960044,55.4169936,-93.29113,22.8179496,-37.6666396,-18.1126252,-0.9907392,0.135501,-0.1613166,130.80820899999998,79.82564099999999,149.2013856,94.43262503526904,1.1490817328478249,47.61829222410336,1.01289077834345,80.84816500000001,24.4086474,242.4925156
6495.349,9.995809800000002,80.0166506,-39.7159234,-0.9485798,0.4885355999999999,0.3737874,51.2861502,57.05513219999999,-91.8910736,22.534706000000003,-38.987715,-16.659452599999998,-1.0430486,0.1100503999999999,-0.1236152,129.1363218,80.61036239999999,147.0434876,89.88845953911394,1.1305696306880704,48.01450048016024,1.056097623410431,77.8501716,23.555230200000004,238.9345612
6515.335,9.649777800000004,77.80582139999999,-37.659472,-0.928053,0.4744856,0.3509934,52.714935,58.6061294,-90.390274,24.0399194,-40.2793822,-22.5550484,-1.0441018,0.0755574,-0.0755634,127.4328886,81.499846,144.8292664,86.97758266724163,1.099825132582412,52.04879022127715,1.0495557712087338,74.71795360000002,22.8937166,235.2195404
6535.32,12.306663000000004,75.0235598,-35.388975,-0.9214918,0.454333,0.3415992,54.28176020000001,60.06124559999999,-88.8024994,28.3539902,-35.449785199999994,-24.484615400000003,-0.9731564,0.1151787999999999,-0.0817178,126.104518,82.33864919999999,142.91205159999998,83.8592155389637,1.0827075439826213,51.57647159581345,0.9833500565247556,71.8227578,22.2774036,231.714551
6555.306,14.937491200000002,71.34693239999999,-33.2145318,-0.9258196,0.4331428,0.3214483999999999,55.97196720000001,61.4159942,-87.1594054,27.7521294,-31.8311618,-23.5668892,-0.9851662,0.1183176,-0.0961867999999999,124.91763899999998,83.1114472,141.1513064,80.10442265526576,1.0714866731782342,48.36116018394513,0.99689688362761,68.9456718,21.695453,228.3107118
6575.292,17.074658600000003,66.87103499999999,-30.4543622,-0.9499048,0.423132,0.2868532,57.7792366,62.6573402,-85.459593,26.345608,-28.688392600000004,-18.7514016,-0.9944292,0.1190842,-0.0826166,123.45531,83.7603972,139.1439272,75.437043057682,1.078723586854983,43.22880975490629,1.004935810436587,65.67607339999999,21.103057,224.6035202
6595.277,20.4351012,60.8353782,-27.2259796,-0.9710528,0.4158346,0.2675792,59.6537522,63.757328,-83.7785718,25.4834182,-24.6363288,-19.1654666,-0.98943,0.1276759999999999,-0.0794578,122.2938842,84.35662819999999,137.460019,69.7121981217842,1.0897066500749824,40.29476901402359,1.0007928995835451,62.64013200000001,20.5993002,221.23859080000005
6615.263,22.655517800000005,53.0697958,-24.1308296,-0.9853534,0.4151644,0.2646194,61.4669306,64.6996186,-82.22388140000001,24.2574136,-18.8696418,-15.0552094,-0.9737658,0.1322623999999999,-0.0903817999999999,121.2306732,84.8170118,135.9027802,62.54576444671574,1.1015018060699129,34.221993312775055,0.9868546222593476,59.7637426,20.1173932,218.1266616
6635.249,21.9316898,44.2070086,-20.5898646,-0.9932642,0.42682,0.2612257999999999,63.097396200000006,65.4678644,-80.8629088,20.5370446,-15.395018,-12.1851252,-0.9984478,0.097807,-0.0856626,120.145868,85.1854626,134.4000732,53.471498493031135,1.112199623263414,28.41221667280447,1.0068774998045191,57.0484718,19.7175982,215.262982
6655.234,18.77961,34.7914946,-16.204984,-0.9951494,0.456063,0.2734608,64.4814698,66.05983439999999,-79.710321,18.5625092,-13.4792194,-10.6111452,-1.0197172,0.0844504,-0.0515935999999999,118.9973696,85.5068326,132.8740722,42.72848411416189,1.1283158234404054,25.27553176273259,1.0245081442316406,54.5158998,19.4469982,212.5843932
6675.22,12.4657236,26.2534188,-11.6898808,-0.974917,0.4805344,0.2970446,65.5351684,66.47852939999999,-78.7828384,18.9959244,-13.362443199999998,-12.2527394,-1.017596,0.0840924,-0.0301058,117.7621736,85.8578168,131.25404200000003,31.32554192153743,1.1267705892778352,26.258896680707167,1.0215084483974668,52.2270052,19.3792874,210.03688040000003
6695.206,2.197215000000002,20.3159562,-8.497975399999998,-0.9456488,0.4719228,0.3148712,66.1961898,66.77156519999998,-78.0560242,19.055973,-13.3455982,-10.7419106,-0.9966456,0.0814872,-0.019152,116.0542604,86.17758620000001,129.1604646,22.131005760596345,1.10277225876004,25.624670566291478,1.000154695468256,49.8580706,19.406021,207.21648880000004
6715.192,-6.547524599999997,16.5577118,-5.0463138,-0.9249716,0.4587222000000001,0.3036147999999999,66.6065458,66.9684508,-77.4127518,18.5230254,-12.1671142,-10.0970594,-0.9742004,0.078696,-0.0191868,114.263434,86.46943960000002,126.995427,18.506571303392068,1.0761879317100893,24.353475038524078,0.9775620763257952,47.65688819999999,19.5009888,204.4081788
6735.177,-13.366764199999997,14.2057654,-1.764514,-0.9212828,0.4497178,0.2700078,66.8803298,67.09237639999999,-76.778392,18.2749488,-9.5321556,-8.109528999999998,-0.9719884,0.0890638,-0.0386477999999999,112.9004792,86.7018508,125.26396800000002,19.58539418634291,1.060147305459727,22.149496712726314,0.9768251955441364,46.0201494,19.6094744,202.04236
6755.163,-17.323387599999997,11.7283528,0.4054105999999999,-0.9243388,0.4143864,0.2162604,67.0222076,67.15825939999999,-76.2058594,16.8702468,-6.8497754,-5.3081264,-0.9774518,0.1063788,-0.054146,111.9153092,86.86219940000001,123.93907780000002,20.924109899723188,1.0358025228288257,18.96578118617138,0.9847132880837348,44.8931016,19.70394,200.1449372
6775.149,-15.942324399999997,7.7755376,1.8452312,-0.9398238,0.3829508,0.165237,67.0710998,67.174153,-75.7691576,14.9040988,-3.4264608,-2.0234890000000005,-0.9849084,0.1196652,-0.0624362,111.44963400000002,86.91795199999999,123.1742356,17.833159294564226,1.028213672558423,15.42618884842329,0.9941139751316448,44.3785342,19.743799,198.9433932
6795.134,-9.981289999999998,1.3864698000000004,3.8868474,-0.9727056,0.3646934,0.1515822,67.0104644,67.1206206,-75.58100759999999,11.4079464,-0.168046,-1.0896766,-0.9904406,0.1171683999999999,-0.0653646,111.781821,86.928299,123.2783492,10.800742163448712,1.049825996835552,11.461102722512198,0.9994866417416892,44.7713566,19.8076784,198.8593568
6815.12,-5.691179399999998,-6.7185826,6.2852278,-1.0016762,0.3651634,0.1549538,66.7335342,66.9641632,-75.71721959999999,7.6194158,1.8281646000000005,0.4522199999999999,-1.005687,0.1086819999999999,-0.0610357999999999,112.4834948,86.89848479999999,123.8283584,10.818177462673642,1.0773626123457412,7.848705999486973,1.0133822023178818,45.7499606,19.9343216,199.545578
6835.106,-3.692457399999997,-15.6344506,8.4726766,-1.007775,0.3654911999999999,0.1745218,66.14933620000001,66.69329839999999,-76.2277314,3.3185364,0.0486874000000003,0.3262653999999999,-1.0324258,0.0811534,-0.0190572,112.3492266,86.8970322,123.6281738,18.16195297821362,1.086117915595577,3.3348918141794166,1.0357857325282291,46.1998904,20.2037338,199.8559052
6855.091,-2.036241399999997,-24.5312816,11.0397166,-1.0074674,0.3780362,0.2074504,65.270993,66.2896958,-77.0875762,1.7833524,-4.0745418,-1.8216928,-1.0418096,0.0425,0.0198667999999999,110.7801302,86.978569,122.0229736,26.9778686813078,1.095872984899874,4.806329297926313,1.0428653711742468,45.5091372,20.6888732,199.1105498
6875.077,-2.2674889999999968,-33.93668340000001,14.130159199999998,-1.0113152,0.391321,0.2580858,64.06472620000001,65.7313752,-78.2917692,3.81742,-8.952243999999999,-5.8782174,-1.0354823999999998,0.008391,0.0388014,107.5981828,87.193277,118.7633712,36.83071253144991,1.1146743196798248,11.369644141027402,1.0362430980386406,43.5334566,21.4619018,197.0551404
6895.063,-3.0917647999999973,-44.6120282,18.1491106,-1.0121398,0.4176342,0.2858856,62.57957540000001,64.9805146,-79.78350499999999,7.72169,-12.5474516,-7.6913032,-1.0206138,0.0118298,0.0361732,103.0511536,87.4542098,114.0604218,48.261602597377,1.1316253249380024,16.619843050545718,1.0213231483309877,40.4715782,22.4736952,193.8439268
6915.048,-4.784936199999997,-56.1254648,23.265570200000003,-1.0127484,0.4430075999999999,0.3213282,60.8461052,64.00096060000001,-81.52891059999999,11.6069106,-14.3369406,-7.5816692,-1.0020322,0.0547162,0.0208629999999999,97.7508408,87.68786,108.5266038,60.94464841300864,1.1511589236398074,19.943669354021825,1.0037418279359889,36.9047356,23.686899399999994,190.0555144
6935.034,-7.034069599999997,-67.606901,28.7463952,-1.0122682,0.4628526,0.3603158,58.9183044,62.78140499999999,-83.462158,13.3474706,-13.3223782,-5.0734454,-0.9843436,0.1069634,-0.0130612,92.7863084,87.8423018,103.2940002,73.80058560035975,1.1699345767125784,19.52896772869679,0.9902242608348678,33.868004,25.0608968,186.7561582
